refix,pretarget,multifix,urevent,tonset,dur_added,rank,stposrel,stposabs,n,x,y,istarget,isdistractor,distractor_cat,ditractor_atr,trial_targetseen,trial_correct,trial_cat,trial_resp,trial_atr,trial_type,trial_cattype,trial_number,trial_subject,trial_bgn_latency,VSNT_EX,VSNT_EX_correct,VSeasy_EXobj_correct
1,0.0,0,23248,0.609375,0.14453125,1.0,4,12,2,636.475891113281,349.615234375,0,1,objects,big,0,1,faces,A,female,EX,F,3,E01,8.599609375,0.0,0.0,0.0
2,0.0,1,23251,1.435546875,0.171875,4.0,4,12,5,677.897827148438,356.753265380859,0,1,objects,big,0,1,faces,A,female,EX,F,3,E01,8.599609375,0.0,0.0,0.0
0,0.0,0,23253,1.8515625,0.126953125,5.0,1,4,7,540.394409179688,481.721649169922,0,1,objects,small,0,1,faces,A,female,EX,F,3,E01,8.599609375,0.0,0.0,0.0
0,0.0,0,23254,2.01953125,0.244140625,6.0,2,5,8,537.822387695312,560.971984863281,0,1,objects,small,0,1,faces,A,female,EX,F,3,E01,8.599609375,0.0,0.0,0.0
0,0.0,1,23259,3.314453125,0.169921875,10.0,12,69,13,1294.50366210938,644.347717285156,0,1,objects,small,0,1,faces,A,female,EX,F,3,E01,8.599609375,0.0,0.0,0.0
0,0.0,1,23296,0.47265625,0.263671875,2.0,3,19,2,739.864807128906,150.002990722656,0,1,objects,big,0,1,faces,A,male,EX,F,5,E01,16.998046875,0.0,0.0,0.0
0,0.0,0,23299,1.1640625,0.1796875,4.0,9,38,5,949.720092773438,260.298614501953,0,1,objects,small,0,1,faces,A,male,EX,F,5,E01,16.998046875,0.0,0.0,0.0
0,0.0,1,23304,2.4375,0.197265625,8.0,13,69,10,1264.61804199219,607.870300292969,0,1,objects,small,0,1,faces,A,male,EX,F,5,E01,16.998046875,0.0,0.0,0.0
0,0.0,0,23309,3.84375,0.158203125,11.0,15,75,15,1343.31774902344,346.220092773438,0,1,objects,big,0,1,faces,A,male,EX,F,5,E01,16.998046875,0.0,0.0,0.0
0,1.0,1,23322,0.33984375,0.130859375,1.0,1,3,1,544.145629882812,389.453735351562,0,1,objects,big,1,1,faces,P,male,VS,I,6,E01,21.197265625,1.0,1.0,1.0
1,0.0,0,23387,0.3046875,0.111328125,1.0,2,5,1,586.916076660156,524.582580566406,0,1,objects,small,0,1,faces,A,male,EX,I,9,E01,33.794921875,0.0,0.0,0.0
2,0.0,0,23390,1.046875,0.267578125,4.0,2,5,4,547.358764648438,555.911376953125,0,1,objects,small,0,1,faces,A,male,EX,I,9,E01,33.794921875,0.0,0.0,0.0
0,0.0,0,23398,3.01171875,0.208984375,9.0,10,62,12,1154.94763183594,840.348327636719,0,1,objects,small,0,1,faces,A,male,EX,I,9,E01,33.794921875,0.0,0.0,0.0
0,0.0,0,23401,3.9140625,0.443359375,12.0,9,59,15,1168.58984375,539.584289550781,0,1,objects,big,0,1,faces,A,male,EX,I,9,E01,33.794921875,0.0,0.0,0.0
0,0.0,0,23551,0.63671875,0.408203125,2.0,8,33,2,857.180236816406,623.450317382812,0,1,objects,big,0,1,objects,A,small,EX,O,15,E01,58.990234375,0.0,0.0,0.0
0,0.0,0,23552,1.0859375,0.28125,3.0,9,42,3,952.293090820312,631.776977539062,0,1,objects,small,0,1,objects,A,small,EX,O,15,E01,58.990234375,0.0,0.0,0.0
0,0.0,1,23556,2.169921875,0.119140625,6.0,15,75,7,1320.6923828125,380.241516113281,0,1,objects,small,0,1,objects,A,small,EX,O,15,E01,58.990234375,0.0,0.0,0.0
0,0.0,0,23559,2.9765625,0.138671875,8.0,14,62,10,1164.76477050781,828.650451660156,0,1,objects,big,0,1,objects,A,small,EX,O,15,E01,58.990234375,0.0,0.0,0.0
0,1.0,0,23582,0.298828125,0.177734375,1.0,4,12,1,708.846740722656,320.311950683594,0,1,objects,big,1,1,faces,P,female,VS,F,16,E01,63.189453125,1.0,1.0,1.0
0,1.0,0,23583,0.53125,0.130859375,2.0,5,19,2,727.278015136719,161.494171142578,0,1,objects,big,1,1,faces,P,female,VS,F,16,E01,63.189453125,1.0,1.0,1.0
0,1.0,0,23629,0.423828125,0.12890625,1.0,3,20,3,761.261840820312,243.13362121582,0,1,objects,small,1,1,faces,P,female,VS,F,18,E01,71.587890625,1.0,1.0,1.0
0,1.0,0,23634,1.7578125,0.1484375,5.0,6,24,8,803.429565429688,608.787231445312,0,1,objects,big,1,1,faces,P,female,VS,F,18,E01,71.587890625,1.0,1.0,1.0
1,0.0,0,23724,0.314453125,0.19140625,1.0,8,31,2,869.343933105469,453.036041259766,0,1,objects,small,0,1,objects,A,big,EX,O,22,E01,88.384765625,0.0,0.0,0.0
0,0.0,0,23728,1.208984375,0.248046875,3.0,6,28,6,854.795043945312,180.576599121094,0,1,objects,big,0,1,objects,A,big,EX,O,22,E01,88.384765625,0.0,0.0,0.0
2,0.0,0,23732,2.15625,0.287109375,6.0,8,31,10,856.856628417969,485.690216064453,0,1,objects,small,0,1,objects,A,big,EX,O,22,E01,88.384765625,0.0,0.0,0.0
0,0.0,0,23735,3.001953125,0.263671875,9.0,5,17,13,613.903930664062,871.441162109375,0,1,objects,small,0,1,objects,A,big,EX,O,22,E01,88.384765625,0.0,0.0,0.0
0,1.0,0,23818,2.95703125,0.123046875,9.0,7,52,15,1057.81115722656,770.4609375,0,1,objects,big,1,1,faces,P,female,VS,F,25,E01,100.982421875,1.0,1.0,1.0
0,0.0,0,23898,0.349609375,0.142578125,1.0,6,20,2,807.0390625,274.072875976562,0,1,objects,big,0,1,faces,A,female,EX,I,28,E01,113.580078125,0.0,0.0,0.0
0,0.0,1,23901,0.97265625,0.21484375,3.0,3,11,5,691.648498535156,249.458618164062,0,1,objects,small,0,1,faces,A,female,EX,I,28,E01,113.580078125,0.0,0.0,0.0
0,0.0,0,23906,1.982421875,0.263671875,6.0,12,59,10,1165.30078125,552.722412109375,0,1,objects,small,0,1,faces,A,female,EX,I,28,E01,113.580078125,0.0,0.0,0.0
0,0.0,0,23908,2.546875,0.14453125,8.0,13,70,12,1271.77001953125,783.527709960938,0,1,objects,small,0,1,faces,A,female,EX,I,28,E01,113.580078125,0.0,0.0,0.0
0,0.0,1,23909,2.73046875,0.353515625,9.0,14,71,13,1297.84509277344,832.489990234375,0,1,objects,big,0,1,faces,A,female,EX,I,28,E01,113.580078125,0.0,0.0,0.0
0,1.0,0,23937,1.2421875,0.125,5.0,14,75,6,1392.00866699219,378.409729003906,0,1,objects,big,1,1,faces,P,male,VS,I,29,E01,117.779296875,1.0,1.0,1.0
0,1.0,0,23939,1.6171875,0.19921875,7.0,3,22,8,791.37841796875,451.220367431641,0,1,objects,small,1,1,faces,P,male,VS,I,29,E01,117.779296875,1.0,1.0,1.0
0,1.0,0,23940,1.861328125,0.138671875,8.0,4,32,9,879.199462890625,544.513061523438,0,1,objects,small,1,1,faces,P,male,VS,I,29,E01,117.779296875,1.0,1.0,1.0
0,1.0,0,23944,2.9453125,0.13671875,12.0,12,70,13,1261.6552734375,735.941467285156,0,1,objects,big,1,1,faces,P,male,VS,I,29,E01,117.779296875,1.0,1.0,1.0
0,1.0,0,23945,3.134765625,0.140625,13.0,11,68,14,1262.39538574219,555.264465332031,0,1,objects,big,1,1,faces,P,male,VS,I,29,E01,117.779296875,1.0,1.0,1.0
1,0.0,0,24128,1.177734375,0.177734375,4.0,9,47,5,1043.52478027344,215.816390991211,0,1,objects,big,0,1,objects,A,small,EX,O,37,E01,151.373046875,0.0,0.0,0.0
2,0.0,0,24130,1.583984375,0.30859375,6.0,9,47,7,1074.40441894531,254.002395629883,0,1,objects,big,0,1,objects,A,small,EX,O,37,E01,151.373046875,0.0,0.0,0.0
0,0.0,0,24133,2.443359375,0.1953125,8.0,5,24,10,756.03173828125,668.71142578125,0,1,objects,small,0,1,objects,A,small,EX,O,37,E01,151.373046875,0.0,0.0,0.0
0,0.0,0,24136,3.02734375,0.201171875,9.0,6,27,13,742.673950195312,968.25341796875,0,1,objects,small,0,1,objects,A,small,EX,O,37,E01,151.373046875,0.0,0.0,0.0
0,0.0,0,24137,3.275390625,0.21875,10.0,10,53,14,1078.38989257812,854.335144042969,0,1,objects,small,0,1,objects,A,small,EX,O,37,E01,151.373046875,0.0,0.0,0.0
0,0.0,0,24138,3.5234375,0.205078125,11.0,11,62,15,1162.21618652344,832.706604003906,0,1,objects,big,0,1,objects,A,small,EX,O,37,E01,151.373046875,0.0,0.0,0.0
0,0.0,0,24153,0.982421875,0.232421875,2.0,8,37,4,956.962829589844,166.157073974609,0,1,objects,small,0,1,faces,A,female,EX,F,38,E01,155.572265625,0.0,0.0,0.0
0,0.0,0,24154,1.28125,0.30078125,3.0,11,48,5,1078.69653320312,350.54736328125,0,1,objects,small,0,1,faces,A,female,EX,F,38,E01,155.572265625,0.0,0.0,0.0
0,0.0,1,24156,1.888671875,0.171875,4.0,15,77,7,1408.85412597656,542.827697753906,0,1,objects,small,0,1,faces,A,female,EX,F,38,E01,155.572265625,0.0,0.0,0.0
0,0.0,0,24161,2.951171875,0.3515625,6.0,9,43,12,962.6103515625,725.459045410156,0,1,objects,big,0,1,faces,A,female,EX,F,38,E01,155.572265625,0.0,0.0,0.0
0,0.0,0,24164,3.716796875,0.314453125,8.0,3,7,15,553.447875976562,753.230041503906,0,1,objects,big,0,1,faces,A,female,EX,F,38,E01,155.572265625,0.0,0.0,0.0
0,0.0,0,24220,3.423828125,0.205078125,8.0,11,54,13,1022.19409179688,929.3603515625,0,1,objects,big,0,1,objects,A,big,EX,O,40,E01,163.970703125,0.0,0.0,0.0
0,1.0,0,24238,0.46875,0.208984375,1.0,2,8,2,598.920837402344,865.965515136719,0,1,objects,small,1,1,faces,P,female,VS,F,41,E01,168.169921875,1.0,1.0,1.0
0,1.0,0,24262,0.71484375,0.234375,1.0,1,1,3,524.730224609375,172.699615478516,0,1,objects,big,1,1,faces,P,female,VS,I,42,E01,172.369140625,1.0,1.0,1.0
0,0.0,0,24321,0.669921875,0.259765625,1.0,14,73,2,1328.40368652344,186.075744628906,0,1,objects,big,0,1,faces,A,male,EX,F,45,E01,184.966796875,0.0,0.0,0.0
0,0.0,0,24323,1.125,0.283203125,2.0,10,58,4,1156.8994140625,446.145751953125,0,1,objects,small,0,1,faces,A,male,EX,F,45,E01,184.966796875,0.0,0.0,0.0
0,0.0,0,24329,2.669921875,0.31640625,6.0,11,60,10,1174.37609863281,655.703552246094,0,1,objects,small,0,1,faces,A,male,EX,F,45,E01,184.966796875,0.0,0.0,0.0
0,0.0,0,24334,3.77734375,0.1640625,9.0,8,54,15,1089.06750488281,933.723754882812,0,1,objects,big,0,1,faces,A,male,EX,F,45,E01,184.966796875,0.0,0.0,0.0
0,0.0,0,24377,0.94921875,0.162109375,1.0,8,47,4,1108.9951171875,197.796524047852,0,1,objects,big,0,1,faces,A,male,EX,I,47,E01,193.365234375,0.0,0.0,0.0
0,0.0,1,24378,1.162109375,0.15234375,2.0,7,37,5,988.125915527344,180.483352661133,0,1,objects,big,0,1,faces,A,male,EX,I,47,E01,193.365234375,0.0,0.0,0.0
0,0.0,1,24384,2.703125,0.1015625,5.0,15,77,11,1340.30297851562,543.927734375,0,1,objects,small,0,1,faces,A,male,EX,I,47,E01,193.365234375,0.0,0.0,0.0
0,1.0,0,24431,2.205078125,0.1875,4.0,8,34,7,861.879821777344,733.322326660156,0,1,objects,big,1,1,faces,P,male,VS,F,49,E01,201.763671875,1.0,1.0,1.0
0,0.0,0,24776,0.94140625,0.171875,1.0,12,66,4,1267.71643066406,347.146545410156,0,1,objects,small,0,1,objects,A,big,EX,O,63,E01,260.552734375,0.0,0.0,0.0
0,0.0,1,24778,1.697265625,0.2265625,3.0,10,57,6,1204.7109375,331.862579345703,0,1,objects,big,0,1,objects,A,big,EX,O,63,E01,260.552734375,0.0,0.0,0.0
0,0.0,0,24780,2.28515625,0.169921875,4.0,4,20,8,762.086853027344,260.433715820312,0,1,objects,big,0,1,objects,A,big,EX,O,63,E01,260.552734375,0.0,0.0,0.0
0,0.0,0,24787,3.841796875,0.248046875,9.0,13,67,15,1223.18383789062,453.780242919922,0,1,objects,small,0,1,objects,A,big,EX,O,63,E01,260.552734375,0.0,0.0,0.0
0,0.0,0,24861,2.884765625,0.193359375,5.0,5,31,9,857.808227539062,445.1591796875,0,1,objects,small,0,1,objects,A,small,EX,O,66,E01,273.150390625,0.0,0.0,0.0
0,1.0,0,24887,1.38671875,0.23046875,3.0,3,23,5,737.35498046875,516.80224609375,0,1,objects,small,1,1,faces,P,male,VS,F,67,E01,277.349609375,1.0,1.0,1.0
0,1.0,0,24888,1.673828125,0.1328125,4.0,7,50,6,1032.78125,525.287109375,0,1,objects,big,1,1,faces,P,male,VS,F,67,E01,277.349609375,1.0,1.0,1.0
0,0.0,0,25005,2.1328125,0.23046875,3.0,10,51,8,1078.40319824219,648.453369140625,0,1,objects,big,0,1,faces,A,male,EX,F,71,E01,294.146484375,0.0,0.0,0.0
0,1.0,0,25324,1.462890625,0.24609375,5.0,4,12,6,644.184814453125,345.332092285156,0,1,objects,small,1,1,faces,P,female,VS,F,76,E01,315.142578125,1.0,1.0,1.0
0,0.0,0,25369,0.6484375,0.23046875,1.0,7,38,3,966.431823730469,286.187072753906,0,1,objects,big,0,1,faces,A,female,EX,F,78,E01,323.541015625,0.0,0.0,0.0
0,0.0,1,25451,0.6484375,0.19140625,2.0,6,30,3,849.097106933594,372.857452392578,0,1,objects,small,0,1,faces,A,female,EX,I,81,E01,336.138671875,0.0,0.0,0.0
0,0.0,0,25458,2.90234375,0.283203125,5.0,3,16,10,651.298828125,731.389404296875,0,1,objects,small,0,1,faces,A,female,EX,I,81,E01,336.138671875,0.0,0.0,0.0
0,0.0,0,25461,3.6015625,0.1484375,7.0,10,53,13,1026.37268066406,851.010498046875,0,1,objects,big,0,1,faces,A,female,EX,I,81,E01,336.138671875,0.0,0.0,0.0
0,0.0,0,25534,0.5625,0.1484375,1.0,15,77,2,1321.32800292969,503.843383789062,0,1,objects,small,0,1,objects,A,small,EX,O,84,E01,348.736328125,0.0,0.0,0.0
0,1.0,0,25561,0.451171875,0.138671875,1.0,4,20,2,710.522033691406,258.257110595703,0,1,objects,small,1,1,faces,P,female,VS,I,85,E01,352.935546875,1.0,1.0,1.0
0,0.0,0,25616,2.83984375,0.123046875,4.0,7,31,7,893.117858886719,447.912475585938,0,1,objects,small,0,1,faces,A,male,EX,F,87,E01,361.333984375,0.0,0.0,0.0
0,0.0,1,25617,3.06640625,0.12890625,5.0,6,16,8,673.766235351562,719.441833496094,0,1,objects,big,0,1,faces,A,male,EX,F,87,E01,361.333984375,0.0,0.0,0.0
0,0.0,0,25651,2.240234375,0.193359375,3.0,14,77,8,1360.52258300781,551.388366699219,0,1,objects,small,0,1,objects,A,big,EX,O,88,E01,365.533203125,0.0,0.0,0.0
0,0.0,0,25950,0.32421875,0.1171875,1.0,5,40,1,973.574951171875,474.864440917969,0,1,objects,small,0,1,faces,A,female,EX,F,99,E01,411.724609375,0.0,0.0,0.0
0,0.0,0,25955,1.267578125,0.171875,3.0,1,4,6,542.641967773438,449.200897216797,0,1,objects,big,0,1,faces,A,female,EX,F,99,E01,411.724609375,0.0,0.0,0.0
0,0.0,1,26008,1.53515625,0.15234375,3.0,15,77,5,1333.30029296875,515.521545410156,0,1,objects,small,0,1,faces,A,female,EX,I,101,E01,420.123046875,0.0,0.0,0.0
0,0.0,0,26010,1.953125,0.25390625,4.0,5,41,7,980.53857421875,545.59521484375,0,1,objects,big,0,1,faces,A,female,EX,I,101,E01,420.123046875,0.0,0.0,0.0
1,0.0,0,26012,2.49609375,0.140625,6.0,1,5,9,571.744384765625,545.193420410156,0,1,objects,small,0,1,faces,A,female,EX,I,101,E01,420.123046875,0.0,0.0,0.0
0,0.0,1,26013,2.71484375,0.228515625,7.0,7,51,10,1047.16687011719,656.310302734375,0,1,objects,big,0,1,faces,A,female,EX,I,101,E01,420.123046875,0.0,0.0,0.0
2,0.0,0,26016,3.580078125,0.16796875,9.0,1,5,13,577.949340820312,552.436889648438,0,1,objects,small,0,1,faces,A,female,EX,I,101,E01,420.123046875,0.0,0.0,0.0
0,1.0,0,26032,0.8125,0.134765625,3.0,1,1,3,578.214111328125,154.82666015625,0,1,objects,big,1,1,faces,P,female,VS,I,102,E01,424.322265625,1.0,1.0,1.0
0,1.0,0,26034,1.318359375,0.275390625,5.0,5,21,5,803.272827148438,360.571228027344,0,1,objects,big,1,1,faces,P,female,VS,I,102,E01,424.322265625,1.0,1.0,1.0
0,1.0,0,26037,2.078125,0.18359375,6.0,13,61,8,1163.60632324219,741.0703125,0,1,objects,small,1,1,faces,P,female,VS,I,102,E01,424.322265625,1.0,1.0,1.0
0,0.0,0,26070,0.267578125,0.123046875,1.0,3,30,2,877.525329589844,336.392028808594,0,1,objects,big,0,1,objects,A,big,EX,O,104,E01,432.720703125,0.0,0.0,0.0
0,0.0,0,26079,2.626953125,0.14453125,6.0,2,22,11,808.597412109375,440.392150878906,0,1,objects,big,0,1,objects,A,big,EX,O,104,E01,432.720703125,0.0,0.0,0.0
0,0.0,0,26082,3.255859375,0.28515625,9.0,6,45,14,986.628112792969,891.821960449219,0,1,objects,big,0,1,objects,A,big,EX,O,104,E01,432.720703125,0.0,0.0,0.0
1,0.0,0,26298,0.759765625,0.3046875,2.0,4,21,3,785.321655273438,331.564758300781,0,1,objects,small,0,1,faces,A,male,EX,F,112,E01,466.314453125,0.0,0.0,0.0
2,0.0,0,26300,1.4765625,0.228515625,4.0,4,21,5,773.373474121094,349.145690917969,0,1,objects,small,0,1,faces,A,male,EX,F,112,E01,466.314453125,0.0,0.0,0.0
3,0.0,0,26307,3.341796875,0.212890625,7.0,4,21,12,780.146240234375,345.943328857422,0,1,objects,small,0,1,faces,A,male,EX,F,112,E01,466.314453125,0.0,0.0,0.0
0,0.0,0,26308,3.6171875,0.255859375,8.0,3,3,13,551.936218261719,312.771789550781,0,1,objects,big,0,1,faces,A,male,EX,F,112,E01,466.314453125,0.0,0.0,0.0
1,1.0,0,26398,0.482421875,0.203125,2.0,2,2,2,566.635192871094,193.745788574219,0,1,objects,small,1,1,faces,P,female,VS,I,116,E01,483.111328125,1.0,1.0,1.0
2,1.0,0,26402,1.341796875,0.1484375,4.0,2,2,6,559.795532226562,280.347259521484,0,1,objects,small,1,1,faces,P,female,VS,I,116,E01,483.111328125,1.0,1.0,1.0
0,1.0,0,26450,1.60546875,0.181640625,4.0,3,14,7,637.7646484375,502.627899169922,0,1,objects,small,1,1,faces,P,male,VS,I,118,E01,491.509765625,1.0,1.0,1.0
0,0.0,0,26500,1.00390625,0.236328125,2.0,14,66,4,1302.55700683594,309.435852050781,0,1,objects,small,0,1,objects,A,small,EX,O,120,E01,499.908203125,0.0,0.0,0.0
0,0.0,0,26501,1.283203125,0.466796875,3.0,15,75,5,1344.62280273438,347.939788818359,0,1,objects,small,0,1,objects,A,small,EX,O,120,E01,499.908203125,0.0,0.0,0.0
1,0.0,0,26503,2.037109375,0.171875,4.0,12,50,7,1048.22021484375,517.697387695312,0,1,objects,small,0,1,objects,A,small,EX,O,120,E01,499.908203125,0.0,0.0,0.0
2,0.0,1,26505,3.54296875,0.16015625,5.0,12,50,9,1036.69177246094,495.515716552734,0,1,objects,small,0,1,objects,A,small,EX,O,120,E01,499.908203125,0.0,0.0,0.0
0,1.0,0,26528,2.248046875,0.236328125,5.0,10,53,11,1050.80407714844,840.283386230469,0,1,objects,big,1,1,faces,P,male,VS,I,121,E01,504.107421875,1.0,1.0,1.0
0,1.0,1,26532,3.087890625,0.15625,8.0,12,63,15,1127.728515625,973.958129882812,0,1,objects,big,1,1,faces,P,male,VS,I,121,E01,504.107421875,1.0,1.0,1.0
0,0.0,0,26698,3.744140625,0.333984375,8.0,15,77,13,1340.88244628906,557.952392578125,0,1,objects,big,0,1,objects,A,big,EX,O,127,E01,529.302734375,0.0,0.0,0.0
0,1.0,0,26724,2.353515625,0.162109375,6.0,1,3,12,571.526794433594,378.707763671875,0,1,objects,small,1,1,faces,P,female,VS,F,128,E01,533.501953125,1.0,1.0,1.0
0,0.0,1,26843,1.423828125,0.107421875,3.0,9,54,6,1053.912109375,915.380249023438,0,1,objects,small,0,1,faces,A,male,EX,F,133,E01,554.498046875,0.0,0.0,0.0
0,0.0,0,26844,1.630859375,0.369140625,4.0,11,60,7,1158.5146484375,634.451538085938,0,1,objects,big,0,1,faces,A,male,EX,F,133,E01,554.498046875,0.0,0.0,0.0
0,0.0,0,26999,1.51953125,0.236328125,4.0,15,75,4,1367.00341796875,358.957092285156,0,1,objects,small,0,1,objects,A,small,EX,O,139,E01,579.693359375,0.0,0.0,0.0
0,0.0,0,27000,1.83203125,0.28125,5.0,5,31,5,856.676330566406,431.594421386719,0,1,objects,small,0,1,objects,A,small,EX,O,139,E01,579.693359375,0.0,0.0,0.0
0,0.0,0,27041,1.57421875,0.21875,5.0,1,6,5,595.821472167969,623.491088867188,0,1,objects,small,0,1,faces,A,male,EX,I,141,E01,588.091796875,0.0,0.0,0.0
0,0.0,0,27044,2.314453125,0.16796875,7.0,7,45,8,1002.68157958984,928.884704589844,0,1,objects,small,0,1,faces,A,male,EX,I,141,E01,588.091796875,0.0,0.0,0.0
0,0.0,0,27046,2.80078125,0.228515625,9.0,9,62,10,1172.43432617188,862.937805175781,0,1,objects,big,0,1,faces,A,male,EX,I,141,E01,588.091796875,0.0,0.0,0.0
0,0.0,1,27047,3.07421875,0.138671875,10.0,15,81,11,1314.39929199219,932.76806640625,0,1,objects,big,0,1,faces,A,male,EX,I,141,E01,588.091796875,0.0,0.0,0.0
0,1.0,0,27409,0.75390625,0.16015625,1.0,13,74,3,1321.59020996094,200.498001098633,0,1,objects,big,1,1,faces,P,male,VS,F,148,E01,617.486328125,1.0,1.0,1.0
0,1.0,0,27414,1.869140625,0.212890625,5.0,6,42,8,956.059326171875,635.0419921875,0,1,objects,small,1,1,faces,P,male,VS,F,148,E01,617.486328125,1.0,1.0,1.0
0,1.0,0,27492,1.033203125,0.119140625,2.0,6,38,5,936.087829589844,204.736633300781,0,1,objects,big,1,1,faces,P,female,VS,I,151,E01,630.083984375,1.0,1.0,1.0
0,0.0,0,27519,1.568359375,0.19140625,2.0,12,69,6,1291.50427246094,638.723876953125,0,1,objects,small,0,1,objects,A,big,EX,O,152,E01,634.283203125,0.0,0.0,0.0
0,0.0,0,27521,2.171875,0.30859375,4.0,13,71,8,1296.76257324219,813.683044433594,0,1,objects,small,0,1,objects,A,big,EX,O,152,E01,634.283203125,0.0,0.0,0.0
0,0.0,0,27548,2.67578125,0.17578125,7.0,4,26,10,737.960998535156,842.541381835938,0,1,objects,small,0,1,faces,A,male,EX,F,153,E01,638.482421875,0.0,0.0,0.0
0,0.0,0,27553,3.83203125,0.259765625,10.0,1,3,15,577.121948242188,364.258270263672,0,1,objects,big,0,1,faces,A,male,EX,F,153,E01,638.482421875,0.0,0.0,0.0
0,0.0,0,27568,1.599609375,0.2890625,1.0,10,47,2,1062.29077148438,274.716583251953,0,1,objects,big,0,1,faces,A,female,EX,F,154,E01,642.681640625,0.0,0.0,0.0
0,0.0,0,27570,2.169921875,0.291015625,2.0,2,15,4,647.068725585938,642.76171875,0,1,objects,big,0,1,faces,A,female,EX,F,154,E01,642.681640625,0.0,0.0,0.0
0,0.0,0,27575,3.853515625,0.19140625,5.0,12,58,9,1162.41455078125,459.142578125,0,1,objects,big,0,1,faces,A,female,EX,F,154,E01,642.681640625,0.0,0.0,0.0
0,1.0,1,27670,0.591796875,0.140625,1.0,3,19,3,809.402099609375,188.043640136719,0,1,objects,big,1,1,faces,P,female,VS,I,158,E01,659.478515625,1.0,1.0,1.0
0,1.0,0,27742,0.556640625,0.146484375,2.0,1,4,3,559.467529296875,436.854705810547,0,1,objects,small,1,1,faces,P,female,VS,I,161,E01,672.076171875,1.0,1.0,1.0
0,0.0,0,27803,0.615234375,0.2421875,1.0,3,29,3,875.729370117188,210.598617553711,0,1,objects,big,0,1,faces,A,male,EX,I,163,E01,680.474609375,0.0,0.0,0.0
0,0.0,0,27809,2.201171875,0.34765625,4.0,6,43,9,948.395874023438,724.084289550781,0,1,objects,big,0,1,faces,A,male,EX,I,163,E01,680.474609375,0.0,0.0,0.0
0,0.0,1,27811,2.927734375,0.302734375,6.0,15,79,11,1384.54626464844,722.459350585938,0,1,objects,small,0,1,faces,A,male,EX,I,163,E01,680.474609375,0.0,0.0,0.0
0,1.0,0,27910,0.470703125,0.125,1.0,1,3,2,526.731567382812,325.569793701172,0,1,objects,big,1,1,faces,P,male,VS,I,167,E01,697.271484375,1.0,1.0,1.0
0,0.0,0,27940,1.076171875,0.2421875,1.0,12,66,5,1261.06994628906,318.828704833984,0,1,objects,big,0,1,faces,A,female,EX,I,168,E01,701.470703125,0.0,0.0,0.0
0,0.0,0,27943,1.935546875,0.240234375,3.0,13,67,8,1228.17822265625,429.860229492188,0,1,objects,big,0,1,faces,A,female,EX,I,168,E01,701.470703125,0.0,0.0,0.0
0,0.0,0,27946,2.787109375,0.158203125,5.0,2,7,11,610.463134765625,780.210144042969,0,1,objects,small,0,1,faces,A,female,EX,I,168,E01,701.470703125,0.0,0.0,0.0
0,1.0,0,27964,0.998046875,0.16796875,4.0,13,68,5,1273.81945800781,493.272155761719,0,1,objects,small,1,1,faces,P,female,VS,I,169,E01,705.669921875,1.0,1.0,1.0
0,1.0,1,27965,1.236328125,0.3203125,5.0,6,32,6,888.273254394531,547.81494140625,0,1,objects,small,1,1,faces,P,female,VS,I,169,E01,705.669921875,1.0,1.0,1.0
0,0.0,1,27984,1.556640625,0.146484375,4.0,13,76,8,1362.09460449219,401.956817626953,0,1,objects,small,0,1,faces,A,male,EX,F,170,E01,709.869140625,0.0,0.0,0.0
0,0.0,0,27989,2.5859375,0.228515625,6.0,2,8,13,562.5654296875,839.481262207031,0,1,objects,big,0,1,faces,A,male,EX,F,170,E01,709.869140625,0.0,0.0,0.0
0,1.0,0,28061,0.44921875,0.154296875,1.0,2,10,3,684.40771484375,178.578262329102,0,1,objects,small,1,1,faces,P,female,VS,F,173,E01,722.466796875,1.0,1.0,1.0
0,1.0,0,28260,1.0078125,0.166015625,3.0,2,3,5,581.009521484375,313.487060546875,0,1,objects,big,1,1,faces,P,female,VS,I,180,E01,751.861328125,1.0,1.0,1.0
0,1.0,0,28261,1.271484375,0.1484375,4.0,1,1,6,550.678283691406,165.758575439453,0,1,objects,small,1,1,faces,P,female,VS,I,180,E01,751.861328125,1.0,1.0,1.0
0,1.0,0,28287,0.380859375,0.16015625,1.0,11,48,2,1072.32104492188,300.006958007812,0,1,objects,small,1,1,faces,P,female,VS,I,181,E01,756.060546875,1.0,1.0,1.0
0,0.0,0,28450,1.705078125,0.28125,4.0,5,15,6,639.080749511719,677.728698730469,0,1,objects,big,0,1,faces,A,male,EX,I,187,E01,781.255859375,0.0,0.0,0.0
0,0.0,0,28451,2.05859375,0.228515625,5.0,6,18,7,626.757019042969,935.654052734375,0,1,objects,big,0,1,faces,A,male,EX,I,187,E01,781.255859375,0.0,0.0,0.0
0,0.0,0,28453,2.5234375,0.228515625,6.0,11,62,9,1165.1123046875,856.295288085938,0,1,objects,small,0,1,faces,A,male,EX,I,187,E01,781.255859375,0.0,0.0,0.0
0,0.0,0,28478,1.1953125,0.173828125,3.0,5,21,6,715.604370117188,381.838653564453,0,1,objects,small,0,1,objects,A,big,EX,O,188,E01,785.455078125,0.0,0.0,0.0
0,0.0,0,28483,2.169921875,0.126953125,5.0,8,52,11,1063.25671386719,717.450744628906,0,1,objects,big,0,1,objects,A,big,EX,O,188,E01,785.455078125,0.0,0.0,0.0
0,0.0,1,28584,2.35546875,0.17578125,6.0,15,78,8,1312.53527832031,622.048889160156,0,1,objects,big,0,1,faces,A,female,EX,I,192,E01,802.251953125,0.0,0.0,0.0
0,0.0,0,28586,3.15625,0.232421875,7.0,14,77,10,1408.52380371094,565.120544433594,0,1,objects,big,0,1,faces,A,female,EX,I,192,E01,802.251953125,0.0,0.0,0.0
0,1.0,0,28608,0.78515625,0.181640625,1.0,11,57,4,1167.14099121094,376.200775146484,0,1,objects,big,1,1,faces,P,female,VS,F,193,E01,806.451171875,1.0,1.0,1.0
0,0.0,0,28711,1.08984375,0.150390625,3.0,6,47,3,1052.31188964844,209.767486572266,0,1,objects,big,0,1,faces,A,male,EX,I,197,E01,823.248046875,0.0,0.0,0.0
0,0.0,0,28787,2.298828125,0.1171875,4.0,5,13,7,696.578369140625,432.386566162109,0,1,objects,big,0,1,faces,A,female,EX,I,200,E01,835.845703125,0.0,0.0,0.0
0,0.0,0,28816,1.419921875,0.2578125,2.0,5,21,6,745.341064453125,329.146453857422,0,1,objects,small,0,1,faces,A,female,EX,F,201,E01,840.044921875,0.0,0.0,0.0
0,1.0,0,28829,0.419921875,0.130859375,1.0,10,48,1,1020.24652099609,383.26025390625,0,1,objects,small,1,1,faces,P,female,VS,I,202,E01,844.244140625,1.0,1.0,1.0
0,1.0,0,28866,1.494140625,0.138671875,5.0,14,70,7,1252.68798828125,744.369079589844,0,1,objects,small,1,1,faces,P,female,VS,F,203,E01,848.443359375,1.0,1.0,1.0
0,0.0,0,29017,1.728515625,0.373046875,3.0,2,13,8,641.144470214844,441.627532958984,0,1,objects,small,0,1,faces,A,male,EX,F,209,E01,873.638671875,0.0,0.0,0.0
0,0.0,0,29023,3.17578125,0.177734375,6.0,11,51,14,1066.07043457031,633.236633300781,0,1,objects,small,0,1,faces,A,male,EX,F,209,E01,873.638671875,0.0,0.0,0.0
0,0.0,1,29113,0.609375,0.18359375,2.0,2,11,2,697.23388671875,279.471038818359,0,1,objects,big,0,1,objects,A,big,EX,O,213,E01,890.435546875,0.0,0.0,0.0
0,0.0,0,29117,1.494140625,0.23828125,4.0,8,39,6,1006.17742919922,291.480682373047,0,1,objects,small,0,1,objects,A,big,EX,O,213,E01,890.435546875,0.0,0.0,0.0
0,0.0,0,29119,2.05859375,0.30859375,6.0,13,69,8,1298.08776855469,658.609802246094,0,1,objects,big,0,1,objects,A,big,EX,O,213,E01,890.435546875,0.0,0.0,0.0
0,0.0,1,20703,0.986328125,0.12890625,2.0,11,59,4,1159.25988769531,536.87451171875,0,1,objects,small,0,1,objects,A,small,EX,O,8,E03,29.595703125,0.0,0.0,0.0
0,0.0,1,20706,2.365234375,0.173828125,4.0,5,31,7,877.677307128906,440.842315673828,0,1,objects,small,0,1,objects,A,small,EX,O,8,E03,29.595703125,0.0,0.0,0.0
0,0.0,0,20858,3.9609375,1.0078125,3.0,10,51,12,1088.25219726562,633.192749023438,0,1,objects,big,0,1,faces,A,male,EX,F,13,E03,50.591796875,0.0,0.0,0.0
0,1.0,1,20886,2.3046875,0.103515625,7.0,3,17,12,649.312561035156,882.624328613281,0,1,objects,big,1,1,faces,P,male,VS,I,14,E03,54.791015625,1.0,1.0,1.0
0,1.0,0,20982,0.21875,0.12109375,1.0,6,40,1,997.46435546875,401.900360107422,0,1,objects,small,1,1,faces,P,female,VS,I,18,E03,71.587890625,1.0,1.0,1.0
0,1.0,0,20983,0.37109375,0.1171875,2.0,9,48,2,1041.80651855469,378.630340576172,0,1,objects,small,1,1,faces,P,female,VS,I,18,E03,71.587890625,1.0,1.0,1.0
0,1.0,0,21051,0.314453125,0.14453125,1.0,3,11,1,694.259399414062,278.134613037109,0,1,objects,small,1,1,faces,P,male,VS,F,21,E03,84.185546875,1.0,1.0,1.0
1,0.0,0,21123,1.3046875,0.498046875,3.0,7,31,9,837.089233398438,468.45166015625,0,1,objects,big,0,1,objects,A,small,EX,O,23,E03,92.583984375,0.0,0.0,0.0
2,0.0,0,21129,2.76171875,0.146484375,7.0,7,31,15,835.451477050781,465.329833984375,0,1,objects,big,0,1,objects,A,small,EX,O,23,E03,92.583984375,0.0,0.0,0.0
0,0.0,0,21228,0.755859375,0.21875,2.0,7,34,4,838.055236816406,782.274963378906,0,1,objects,small,0,1,faces,A,female,EX,F,27,E03,109.380859375,0.0,0.0,0.0
0,0.0,0,21232,1.697265625,0.251953125,4.0,9,58,8,1155.95092773438,488.250122070312,0,1,objects,big,0,1,faces,A,female,EX,F,27,E03,109.380859375,0.0,0.0,0.0
1,0.0,0,21233,2.03125,0.123046875,5.0,3,20,9,783.996459960938,285.163391113281,0,1,objects,small,0,1,faces,A,female,EX,F,27,E03,109.380859375,0.0,0.0,0.0
2,0.0,0,21236,2.642578125,0.130859375,6.0,3,20,12,736.761047363281,207.239334106445,0,1,objects,small,0,1,faces,A,female,EX,F,27,E03,109.380859375,0.0,0.0,0.0
0,0.0,0,21532,0.341796875,0.1171875,1.0,6,24,3,803.140625,666.122680664062,0,1,objects,big,0,1,faces,A,female,EX,I,37,E03,151.373046875,0.0,0.0,0.0
0,0.0,1,21564,0.220703125,0.275390625,1.0,5,32,1,855.600952148438,549.412841796875,0,1,objects,small,0,1,faces,A,male,EX,I,38,E03,155.572265625,0.0,0.0,0.0
0,0.0,0,21568,1.158203125,0.208984375,3.0,9,53,5,1059.45971679688,834.915283203125,0,1,objects,big,0,1,faces,A,male,EX,I,38,E03,155.572265625,0.0,0.0,0.0
0,0.0,1,21680,1.677734375,0.18359375,5.0,8,48,9,1046.18408203125,352.560882568359,0,1,objects,small,0,1,faces,A,female,EX,F,41,E03,168.169921875,0.0,0.0,0.0
0,0.0,1,21744,0.36328125,0.232421875,1.0,8,52,3,1034.26062011719,751.990234375,0,1,objects,small,0,1,faces,A,female,EX,I,43,E03,176.568359375,0.0,0.0,0.0
0,0.0,1,21760,3.494140625,0.140625,2.0,1,5,19,569.142272949219,561.587219238281,0,1,objects,small,0,1,faces,A,female,EX,I,43,E03,176.568359375,0.0,0.0,0.0
1,0.0,0,22102,0.41015625,0.14453125,1.0,6,40,3,950.872802734375,448.575653076172,0,1,objects,big,0,1,faces,A,male,EX,F,54,E03,222.759765625,0.0,0.0,0.0
0,0.0,1,22103,0.595703125,0.169921875,2.0,5,30,4,819.545288085938,365.212677001953,0,1,objects,small,0,1,faces,A,male,EX,F,54,E03,222.759765625,0.0,0.0,0.0
2,0.0,0,22105,1.091796875,0.125,3.0,6,40,6,1008.39562988281,421.142700195312,0,1,objects,big,0,1,faces,A,male,EX,F,54,E03,222.759765625,0.0,0.0,0.0
0,0.0,0,22129,0.27734375,0.58203125,1.0,6,51,1,1070.74853515625,650.58935546875,0,1,objects,small,0,1,faces,A,male,EX,I,55,E03,226.958984375,0.0,0.0,0.0
0,0.0,1,22669,1.162109375,0.25390625,3.0,10,38,5,977.347595214844,243.987289428711,0,1,objects,small,0,1,faces,A,female,EX,F,64,E03,264.751953125,0.0,0.0,0.0
0,0.0,1,22672,1.6484375,1.017578125,4.0,11,46,8,1080.01171875,150.701202392578,0,1,objects,big,0,1,faces,A,female,EX,F,64,E03,264.751953125,0.0,0.0,0.0
0,0.0,0,22675,3.435546875,0.28515625,5.0,5,14,11,689.354553222656,531.138061523438,0,1,objects,big,0,1,faces,A,female,EX,F,64,E03,264.751953125,0.0,0.0,0.0
0,0.0,0,22810,1.21484375,0.419921875,3.0,13,69,4,1273.10925292969,639.983642578125,0,1,objects,big,0,1,objects,A,big,EX,O,69,E03,285.748046875,0.0,0.0,0.0
0,0.0,0,23016,0.623046875,0.169921875,2.0,11,60,3,1129.14111328125,621.449462890625,0,1,objects,big,0,1,faces,A,male,EX,F,75,E03,310.943359375,0.0,0.0,0.0
0,1.0,0,23078,0.271484375,0.16796875,1.0,6,39,1,945.097717285156,340.784881591797,0,1,objects,big,1,1,faces,P,male,VS,F,77,E03,319.341796875,1.0,1.0,1.0
0,0.0,0,23176,0.271484375,0.44140625,1.0,8,39,1,955.792541503906,351.277252197266,0,1,objects,small,0,1,faces,A,female,EX,I,80,E03,331.939453125,0.0,0.0,0.0
0,0.0,0,23178,0.931640625,0.38671875,3.0,11,59,3,1166.77111816406,520.431762695312,0,1,objects,big,0,1,faces,A,female,EX,I,80,E03,331.939453125,0.0,0.0,0.0
0,0.0,0,23179,2.15625,0.29296875,4.0,14,79,4,1362.90661621094,733.937438964844,0,1,objects,small,0,1,faces,A,female,EX,I,80,E03,331.939453125,0.0,0.0,0.0
0,0.0,1,23182,3.04296875,0.361328125,6.0,4,19,7,743.358093261719,188.19548034668,0,1,objects,small,0,1,faces,A,female,EX,I,80,E03,331.939453125,0.0,0.0,0.0
1,0.0,1,23203,1.751953125,0.302734375,3.0,5,31,7,871.93505859375,467.899200439453,0,1,objects,small,0,1,objects,A,small,EX,O,81,E03,336.138671875,0.0,0.0,0.0
2,0.0,0,23208,2.953125,0.71484375,5.0,5,31,12,899.660949707031,464.435455322266,0,1,objects,small,0,1,objects,A,small,EX,O,81,E03,336.138671875,0.0,0.0,0.0
0,1.0,1,23240,1.7109375,0.125,6.0,11,55,10,1126.50659179688,156.512329101562,0,1,objects,big,1,1,faces,P,female,VS,I,82,E03,340.337890625,1.0,1.0,1.0
0,1.0,0,23245,2.5625,0.18359375,8.0,4,18,15,652.0205078125,920.382080078125,0,1,objects,small,1,1,faces,P,female,VS,I,82,E03,340.337890625,1.0,1.0,1.0
0,0.0,1,23268,1.248046875,0.17578125,3.0,11,68,7,1270.68310546875,541.948608398438,0,1,objects,big,0,1,faces,A,male,EX,I,83,E03,344.537109375,0.0,0.0,0.0
0,1.0,0,23331,0.404296875,0.1015625,1.0,4,11,2,674.576293945312,211.098892211914,0,1,objects,small,1,1,faces,P,female,VS,I,85,E03,352.935546875,1.0,1.0,1.0
0,1.0,0,23446,2.376953125,0.1484375,5.0,2,17,10,689.26416015625,819.176574707031,0,1,objects,small,1,1,faces,P,male,VS,F,88,E03,365.533203125,1.0,1.0,1.0
0,0.0,1,23565,0.1875,0.13671875,1.0,3,40,1,921.463500976562,455.309265136719,0,1,objects,big,0,1,faces,A,female,EX,I,92,E03,382.330078125,0.0,0.0,0.0
0,1.0,0,23652,1.578125,0.154296875,2.0,7,39,10,982.424560546875,376.728240966797,0,1,objects,small,1,1,faces,P,male,VS,F,94,E03,390.728515625,1.0,1.0,1.0
0,1.0,0,23655,2.1953125,0.16796875,4.0,6,33,13,838.799072265625,627.310424804688,0,1,objects,small,1,1,faces,P,male,VS,F,94,E03,390.728515625,1.0,1.0,1.0
0,0.0,0,23766,0.814453125,0.259765625,3.0,11,41,5,952.8916015625,515.365051269531,0,1,objects,small,0,1,faces,A,male,EX,I,97,E03,403.326171875,0.0,0.0,0.0
0,0.0,1,23767,1.375,0.220703125,4.0,14,68,6,1245.92504882812,508.434387207031,0,1,objects,big,0,1,faces,A,male,EX,I,97,E03,403.326171875,0.0,0.0,0.0
0,0.0,1,23769,2.037109375,0.12109375,5.0,12,51,8,1106.09020996094,622.761108398438,0,1,objects,small,0,1,faces,A,male,EX,I,97,E03,403.326171875,0.0,0.0,0.0
0,0.0,0,23937,0.224609375,0.111328125,1.0,7,39,1,952.407348632812,349.353057861328,0,1,objects,small,0,1,faces,A,female,EX,F,103,E03,428.521484375,0.0,0.0,0.0
0,0.0,0,23946,2.595703125,0.341796875,6.0,8,41,10,984.207214355469,546.227844238281,0,1,objects,small,0,1,faces,A,female,EX,F,103,E03,428.521484375,0.0,0.0,0.0
0,0.0,1,23959,0.369140625,0.13671875,1.0,7,31,2,865.830871582031,464.287658691406,0,1,objects,small,0,1,objects,A,small,EX,O,104,E03,432.720703125,0.0,0.0,0.0
1,0.0,1,23970,2.8046875,0.1796875,5.0,12,57,13,1194.49450683594,384.178527832031,0,1,objects,small,0,1,objects,A,small,EX,O,104,E03,432.720703125,0.0,0.0,0.0
2,0.0,1,23975,3.845703125,0.427734375,6.0,12,57,18,1181.24389648438,349.117156982422,0,1,objects,small,0,1,objects,A,small,EX,O,104,E03,432.720703125,0.0,0.0,0.0
0,0.0,1,24160,2.96484375,0.1171875,4.0,3,8,8,587.082397460938,817.684326171875,0,1,objects,small,0,1,objects,A,big,EX,O,110,E03,457.916015625,0.0,0.0,0.0
1,0.0,0,24199,0.205078125,0.427734375,1.0,4,31,1,894.991455078125,449.9365234375,0,1,objects,small,0,1,faces,A,male,EX,F,112,E03,466.314453125,0.0,0.0,0.0
2,0.0,0,24201,1.357421875,0.298828125,2.0,4,31,3,907.484252929688,480.733978271484,0,1,objects,small,0,1,faces,A,male,EX,F,112,E03,466.314453125,0.0,0.0,0.0
0,1.0,0,24223,0.814453125,0.10546875,2.0,10,46,4,1052.67724609375,169.964233398438,0,1,objects,big,1,1,faces,P,female,VS,F,113,E03,470.513671875,1.0,1.0,1.0
0,1.0,1,24277,1.677734375,0.123046875,6.0,7,33,8,905.696166992188,675.270568847656,0,1,objects,small,1,1,faces,P,female,VS,F,115,E03,478.912109375,1.0,1.0,1.0
0,1.0,0,24279,2.029296875,0.107421875,7.0,6,16,10,618.939758300781,733.016906738281,0,1,objects,small,1,1,faces,P,female,VS,F,115,E03,478.912109375,1.0,1.0,1.0
0,1.0,1,24485,2.28515625,0.13671875,8.0,1,1,11,585.082824707031,189.537750244141,0,1,objects,small,1,1,faces,P,female,VS,I,122,E03,508.306640625,1.0,1.0,1.0
0,1.0,0,24509,0.76953125,0.123046875,3.0,6,20,5,744.4677734375,206.257522583008,0,1,objects,small,1,1,faces,P,female,VS,I,123,E03,512.505859375,1.0,1.0,1.0
1,0.0,0,24617,0.775390625,0.14453125,1.0,10,49,3,1042.02966308594,436.487457275391,0,1,objects,big,0,1,objects,A,small,EX,O,126,E03,525.103515625,0.0,0.0,0.0
2,0.0,0,24620,2.578125,1.517578125,3.0,10,49,6,1100.11572265625,430.719543457031,0,1,objects,big,0,1,objects,A,small,EX,O,126,E03,525.103515625,0.0,0.0,0.0
0,0.0,0,24752,3.837890625,0.55078125,1.0,11,66,7,1275.82507324219,348.275634765625,0,1,objects,small,0,1,objects,A,big,EX,O,130,E03,541.900390625,0.0,0.0,0.0
0,0.0,0,25238,0.72265625,0.216796875,2.0,6,47,4,1082.58068847656,280.158996582031,0,1,objects,big,0,1,faces,A,male,EX,I,139,E03,579.693359375,0.0,0.0,0.0
0,0.0,1,25246,3.263671875,0.43359375,6.0,5,40,12,994.095886230469,467.073364257812,0,1,objects,small,0,1,faces,A,male,EX,I,139,E03,579.693359375,0.0,0.0,0.0
0,1.0,1,25316,2.0,0.119140625,6.0,12,45,11,950.493347167969,938.412780761719,0,1,objects,big,1,1,faces,P,male,VS,I,141,E03,588.091796875,1.0,1.0,1.0
1,0.0,0,25337,0.865234375,0.458984375,1.0,10,49,3,1089.97497558594,445.852325439453,0,1,objects,big,0,1,faces,A,female,EX,I,142,E03,592.291015625,0.0,0.0,0.0
0,0.0,0,25339,1.578125,0.41015625,2.0,15,74,5,1351.49255371094,263.868499755859,0,1,objects,big,0,1,faces,A,female,EX,I,142,E03,592.291015625,0.0,0.0,0.0
0,0.0,0,25342,3.158203125,0.427734375,3.0,14,59,8,1153.38488769531,506.038146972656,0,1,objects,small,0,1,faces,A,female,EX,I,142,E03,592.291015625,0.0,0.0,0.0
2,0.0,1,25343,3.630859375,0.205078125,4.0,10,49,9,1033.11669921875,470.114196777344,0,1,objects,big,0,1,faces,A,female,EX,I,142,E03,592.291015625,0.0,0.0,0.0
0,0.0,1,25364,1.201171875,0.15625,3.0,5,21,7,785.479797363281,387.015625,0,1,objects,small,0,1,faces,A,female,EX,F,143,E03,596.490234375,0.0,0.0,0.0
0,0.0,0,25372,2.79296875,0.232421875,6.0,1,6,15,598.507446289062,672.102294921875,0,1,objects,small,0,1,faces,A,female,EX,F,143,E03,596.490234375,0.0,0.0,0.0
0,0.0,0,25652,0.7578125,0.1171875,2.0,8,39,4,990.123901367188,341.8642578125,0,1,objects,small,0,1,objects,A,big,EX,O,155,E03,646.880859375,0.0,0.0,0.0
0,1.0,0,25949,0.23046875,0.1328125,1.0,5,30,1,891.859802246094,361.195434570312,0,1,objects,big,1,1,faces,P,female,VS,F,165,E03,688.873046875,1.0,1.0,1.0
0,0.0,1,25986,2.68359375,0.13671875,2.0,8,31,3,849.643188476562,439.069580078125,0,1,objects,big,0,1,faces,A,female,EX,I,166,E03,693.072265625,0.0,0.0,0.0
0,0.0,0,26199,1.263671875,0.27734375,3.0,3,22,6,766.298889160156,452.643310546875,0,1,objects,big,0,1,faces,A,male,EX,I,173,E03,722.466796875,0.0,0.0,0.0
0,1.0,0,26472,0.607421875,0.22265625,1.0,11,64,3,1231.40393066406,182.689865112305,0,1,objects,big,1,1,faces,P,male,VS,I,182,E03,760.259765625,1.0,1.0,1.0
0,0.0,1,26577,0.71484375,0.193359375,2.0,3,28,6,832.946044921875,136.40283203125,0,1,objects,small,0,1,faces,A,male,EX,I,185,E03,772.857421875,0.0,0.0,0.0
0,1.0,0,26763,0.333984375,0.1640625,1.0,9,40,2,915.979614257812,397.215728759766,0,1,objects,big,1,1,faces,P,female,VS,F,190,E03,793.853515625,1.0,1.0,1.0
0,0.0,1,26868,0.578125,0.1015625,1.0,11,39,4,938.050354003906,324.1201171875,0,1,objects,big,0,1,faces,A,female,EX,F,193,E03,806.451171875,0.0,0.0,0.0
0,0.0,0,26873,1.572265625,0.35546875,2.0,15,77,9,1331.67822265625,507.627288818359,0,1,objects,small,0,1,faces,A,female,EX,F,193,E03,806.451171875,0.0,0.0,0.0
1,0.0,0,26957,0.83984375,0.26171875,3.0,4,13,5,702.80419921875,436.361358642578,0,1,objects,small,0,1,objects,A,big,EX,O,196,E03,819.048828125,0.0,0.0,0.0
2,0.0,1,26961,2.00390625,0.1328125,5.0,4,13,9,687.106872558594,426.740081787109,0,1,objects,small,0,1,objects,A,big,EX,O,196,E03,819.048828125,0.0,0.0,0.0
3,0.0,1,26964,3.05859375,0.119140625,6.0,4,13,12,664.910461425781,407.202514648438,0,1,objects,small,0,1,objects,A,big,EX,O,196,E03,819.048828125,0.0,0.0,0.0
0,0.0,1,27191,1.73046875,0.18359375,4.0,8,57,10,1160.13061523438,333.792083740234,0,1,objects,small,0,1,faces,A,female,EX,I,203,E03,848.443359375,0.0,0.0,0.0
0,0.0,1,23135,0.552734375,0.134765625,2.0,1,4,2,526.855773925781,458.969665527344,0,1,objects,small,0,1,faces,A,female,EX,F,3,E04,8.599609375,0.0,0.0,0.0
0,0.0,1,23142,1.935546875,0.15234375,5.0,4,12,9,627.589660644531,365.617828369141,0,1,objects,big,0,1,faces,A,female,EX,F,3,E04,8.599609375,0.0,0.0,0.0
0,0.0,0,23149,3.3125,0.19140625,7.0,14,76,16,1358.88586425781,461.423278808594,0,1,objects,big,0,1,faces,A,female,EX,F,3,E04,8.599609375,0.0,0.0,0.0
0,0.0,0,23194,0.755859375,0.1953125,2.0,2,13,3,616.678405761719,431.960845947266,0,1,objects,small,0,1,faces,A,male,EX,F,5,E04,16.998046875,0.0,0.0,0.0
0,0.0,1,23206,3.0546875,0.1484375,9.0,15,75,15,1354.19885253906,387.24462890625,0,1,objects,big,0,1,faces,A,male,EX,F,5,E04,16.998046875,0.0,0.0,0.0
0,1.0,0,23224,0.900390625,0.240234375,2.0,4,17,5,611.873352050781,836.572814941406,0,1,objects,big,1,1,faces,P,male,VS,I,6,E04,21.197265625,1.0,1.0,1.0
0,1.0,0,23227,1.453125,0.1171875,4.0,7,38,8,945.910217285156,289.681488037109,0,1,objects,small,1,1,faces,P,male,VS,I,6,E04,21.197265625,1.0,1.0,1.0
0,1.0,0,23267,0.271484375,0.17578125,1.0,10,45,1,976.169677734375,954.291687011719,0,1,objects,small,1,1,faces,P,male,VS,F,8,E04,29.595703125,1.0,1.0,1.0
1,0.0,0,23292,1.099609375,0.16796875,2.0,12,68,4,1214.74890136719,525.568115234375,0,1,objects,big,0,1,faces,A,male,EX,I,9,E04,33.794921875,0.0,0.0,0.0
0,0.0,0,23293,1.28125,0.28515625,3.0,9,59,5,1185.18688964844,523.349975585938,0,1,objects,big,0,1,faces,A,male,EX,I,9,E04,33.794921875,0.0,0.0,0.0
2,0.0,1,23294,1.58984375,0.138671875,4.0,12,68,6,1236.54614257812,527.606872558594,0,1,objects,big,0,1,faces,A,male,EX,I,9,E04,33.794921875,0.0,0.0,0.0
0,0.0,0,23296,2.009765625,0.2109375,5.0,14,75,8,1320.33874511719,333.783050537109,0,1,objects,small,0,1,faces,A,male,EX,I,9,E04,33.794921875,0.0,0.0,0.0
0,0.0,1,23299,2.619140625,0.3203125,7.0,2,5,11,603.703674316406,539.015441894531,0,1,objects,small,0,1,faces,A,male,EX,I,9,E04,33.794921875,0.0,0.0,0.0
1,0.0,0,23491,1.20703125,0.115234375,2.0,9,42,3,911.542846679688,676.000244140625,0,1,objects,small,0,1,objects,A,small,EX,O,15,E04,58.990234375,0.0,0.0,0.0
2,0.0,1,23493,1.578125,0.14453125,3.0,9,42,5,948.259155273438,617.967895507812,0,1,objects,small,0,1,objects,A,small,EX,O,15,E04,58.990234375,0.0,0.0,0.0
0,0.0,0,23495,1.953125,0.404296875,4.0,10,52,7,1089.23425292969,697.114074707031,0,1,objects,small,0,1,objects,A,small,EX,O,15,E04,58.990234375,0.0,0.0,0.0
0,0.0,0,23496,2.3984375,0.138671875,5.0,14,62,8,1130.55700683594,799.775939941406,0,1,objects,big,0,1,objects,A,small,EX,O,15,E04,58.990234375,0.0,0.0,0.0
0,0.0,0,23745,1.125,0.3203125,2.0,5,17,7,671.064331054688,801.440246582031,0,1,objects,small,0,1,objects,A,big,EX,O,22,E04,88.384765625,0.0,0.0,0.0
0,0.0,0,24054,3.1875,0.166015625,1.0,9,47,1,1033.75415039062,258.730804443359,0,1,objects,big,0,1,objects,A,small,EX,O,37,E04,151.373046875,0.0,0.0,0.0
0,0.0,0,24154,1.77734375,0.154296875,2.0,8,40,8,977.546203613281,406.689086914062,0,1,objects,big,0,1,objects,A,big,EX,O,40,E04,163.970703125,0.0,0.0,0.0
0,0.0,1,24159,2.689453125,0.13671875,4.0,1,2,13,536.223388671875,226.498016357422,0,1,objects,small,0,1,objects,A,big,EX,O,40,E04,163.970703125,0.0,0.0,0.0
1,0.0,1,24282,0.431640625,0.154296875,2.0,10,58,3,1167.86584472656,459.658142089844,0,1,objects,small,0,1,faces,A,male,EX,F,45,E04,184.966796875,0.0,0.0,0.0
2,0.0,1,24288,1.400390625,0.10546875,4.0,10,58,9,1195.93469238281,417.397583007812,0,1,objects,small,0,1,faces,A,male,EX,F,45,E04,184.966796875,0.0,0.0,0.0
0,0.0,1,24291,1.849609375,0.189453125,5.0,9,55,12,1168.48168945312,166.922866821289,0,1,objects,big,0,1,faces,A,male,EX,F,45,E04,184.966796875,0.0,0.0,0.0
3,0.0,0,24293,2.205078125,0.126953125,6.0,10,58,14,1195.97900390625,403.161926269531,0,1,objects,small,0,1,faces,A,male,EX,F,45,E04,184.966796875,0.0,0.0,0.0
0,0.0,0,24299,3.435546875,0.1875,9.0,11,60,20,1190.90368652344,643.262084960938,0,1,objects,small,0,1,faces,A,male,EX,F,45,E04,184.966796875,0.0,0.0,0.0
0,0.0,0,25036,3.421875,0.22265625,3.0,4,27,8,790.702026367188,917.878173828125,0,1,objects,small,0,1,objects,A,small,EX,O,84,E04,348.736328125,0.0,0.0,0.0
0,0.0,0,25136,3.453125,0.267578125,2.0,7,42,8,928.70849609375,593.141662597656,0,1,objects,small,0,1,objects,A,big,EX,O,88,E04,365.533203125,0.0,0.0,0.0
1,0.0,0,25250,0.173828125,0.25390625,1.0,7,42,1,940.224243164062,601.162109375,0,1,objects,big,0,1,faces,A,female,EX,F,99,E04,411.724609375,0.0,0.0,0.0
0,0.0,0,25251,0.4453125,0.1875,2.0,6,41,2,977.616943359375,558.328308105469,0,1,objects,small,0,1,faces,A,female,EX,F,99,E04,411.724609375,0.0,0.0,0.0
2,0.0,0,25252,0.650390625,0.703125,3.0,7,42,3,972.173583984375,634.9931640625,0,1,objects,big,0,1,faces,A,female,EX,F,99,E04,411.724609375,0.0,0.0,0.0
0,0.0,1,25297,0.220703125,0.14453125,1.0,7,51,1,1042.060546875,689.847778320312,0,1,objects,big,0,1,faces,A,female,EX,I,101,E04,420.123046875,0.0,0.0,0.0
0,0.0,0,25391,1.62109375,0.44140625,1.0,7,48,5,1078.38854980469,381.019866943359,0,1,objects,small,0,1,objects,A,big,EX,O,104,E04,432.720703125,0.0,0.0,0.0
1,0.0,0,25624,2.232421875,0.19140625,4.0,6,40,8,977.725830078125,399.409423828125,0,1,objects,big,0,1,faces,A,male,EX,F,112,E04,466.314453125,0.0,0.0,0.0
2,0.0,0,25626,2.580078125,0.189453125,6.0,6,40,10,946.277221679688,444.254455566406,0,1,objects,big,0,1,faces,A,male,EX,F,112,E04,466.314453125,0.0,0.0,0.0
0,0.0,0,25629,3.353515625,0.150390625,8.0,5,30,13,871.821350097656,342.161560058594,0,1,objects,small,0,1,faces,A,male,EX,F,112,E04,466.314453125,0.0,0.0,0.0
0,0.0,1,25630,3.5234375,0.365234375,9.0,4,21,14,788.176635742188,345.660064697266,0,1,objects,small,0,1,faces,A,male,EX,F,112,E04,466.314453125,0.0,0.0,0.0
1,0.0,1,25646,0.529296875,0.13671875,2.0,4,14,2,638.693542480469,585.026306152344,0,1,objects,small,0,1,faces,A,male,EX,I,113,E04,470.513671875,0.0,0.0,0.0
0,0.0,1,25648,1.2265625,0.21875,3.0,6,51,4,1108.93188476562,622.75390625,0,1,objects,small,0,1,faces,A,male,EX,I,113,E04,470.513671875,0.0,0.0,0.0
0,0.0,0,25650,2.35546875,0.16796875,4.0,14,75,6,1365.85681152344,353.662414550781,0,1,objects,small,0,1,faces,A,male,EX,I,113,E04,470.513671875,0.0,0.0,0.0
0,0.0,0,25652,2.767578125,0.201171875,6.0,11,65,8,1290.95263671875,262.733245849609,0,1,objects,big,0,1,faces,A,male,EX,I,113,E04,470.513671875,0.0,0.0,0.0
2,0.0,1,25655,3.505859375,0.13671875,8.0,4,14,11,626.546325683594,506.26171875,0,1,objects,small,0,1,faces,A,male,EX,I,113,E04,470.513671875,0.0,0.0,0.0
0,0.0,1,25812,3.03125,0.24609375,3.0,15,75,15,1403.92993164062,327.394958496094,0,1,objects,small,0,1,objects,A,small,EX,O,120,E04,499.908203125,0.0,0.0,0.0
0,1.0,0,25846,1.623046875,0.154296875,3.0,10,53,10,1088.48474121094,829.584777832031,0,1,objects,big,1,1,faces,P,male,VS,I,121,E04,504.107421875,1.0,1.0,1.0
0,0.0,1,25857,0.541015625,0.14453125,2.0,5,14,2,645.310485839844,548.328674316406,0,1,objects,big,0,1,faces,A,female,EX,F,122,E04,508.306640625,0.0,0.0,0.0
0,1.0,0,25966,1.23828125,0.2265625,3.0,9,50,8,1094.41943359375,551.260314941406,0,1,objects,small,1,1,faces,P,female,VS,F,125,E04,520.904296875,1.0,1.0,1.0
0,0.0,1,26045,1.58984375,0.103515625,2.0,15,77,5,1330.41271972656,529.0361328125,0,1,objects,big,0,1,objects,A,big,EX,O,127,E04,529.302734375,0.0,0.0,0.0
0,0.0,0,26055,3.5625,0.203125,4.0,1,1,15,534.778381347656,146.084060668945,0,1,objects,small,0,1,objects,A,big,EX,O,127,E04,529.302734375,0.0,0.0,0.0
0,0.0,0,26270,0.505859375,0.458984375,2.0,3,9,3,559.601135253906,961.26513671875,0,1,objects,big,0,1,faces,A,male,EX,F,133,E04,554.498046875,0.0,0.0,0.0
0,0.0,0,26273,1.46484375,0.22265625,4.0,11,60,6,1170.89660644531,656.709167480469,0,1,objects,big,0,1,faces,A,male,EX,F,133,E04,554.498046875,0.0,0.0,0.0
0,0.0,0,26275,2.0546875,0.55078125,5.0,15,74,8,1362.78588867188,192.0341796875,0,1,objects,small,0,1,faces,A,male,EX,F,133,E04,554.498046875,0.0,0.0,0.0
0,0.0,1,26372,1.388671875,0.283203125,2.0,11,59,4,1158.20568847656,575.62939453125,0,1,objects,big,0,1,faces,A,female,EX,I,138,E04,575.494140625,0.0,0.0,0.0
0,0.0,1,26394,2.7734375,0.12109375,4.0,6,45,8,1001.61602783203,986.79541015625,0,1,objects,big,0,1,objects,A,small,EX,O,139,E04,579.693359375,0.0,0.0,0.0
0,0.0,0,26449,3.431640625,0.353515625,1.0,9,62,6,1163.00842285156,873.224853515625,0,1,objects,big,0,1,faces,A,male,EX,I,141,E04,588.091796875,0.0,0.0,0.0
0,0.0,0,26821,1.06640625,0.431640625,2.0,5,27,5,748.646362304688,908.233154296875,0,1,objects,big,0,1,objects,A,big,EX,O,152,E04,634.283203125,0.0,0.0,0.0
0,0.0,0,26823,1.8828125,0.30078125,4.0,13,71,7,1283.80090332031,879.124877929688,0,1,objects,small,0,1,objects,A,big,EX,O,152,E04,634.283203125,0.0,0.0,0.0
0,0.0,0,26843,0.708984375,0.19140625,2.0,2,7,4,559.256591796875,781.099182128906,0,1,objects,big,0,1,faces,A,male,EX,F,153,E04,638.482421875,0.0,0.0,0.0
0,0.0,1,26846,1.720703125,0.177734375,4.0,4,26,7,744.762023925781,812.794067382812,0,1,objects,small,0,1,faces,A,male,EX,F,153,E04,638.482421875,0.0,0.0,0.0
0,0.0,0,26864,1.37890625,0.29296875,1.0,8,36,2,846.946655273438,915.396789550781,0,1,objects,small,0,1,faces,A,female,EX,F,154,E04,642.681640625,0.0,0.0,0.0
0,0.0,0,26868,2.375,0.19140625,3.0,12,58,6,1120.896484375,430.529510498047,0,1,objects,big,0,1,faces,A,female,EX,F,154,E04,642.681640625,0.0,0.0,0.0
0,1.0,0,26891,0.33203125,0.208984375,1.0,5,32,2,877.852905273438,578.743225097656,0,1,objects,small,1,1,faces,P,female,VS,I,161,E04,672.076171875,1.0,1.0,1.0
0,1.0,0,26900,2.474609375,0.23828125,7.0,2,13,11,624.411682128906,415.034973144531,0,1,objects,big,1,1,faces,P,female,VS,I,161,E04,672.076171875,1.0,1.0,1.0
0,0.0,0,26908,1.466796875,0.39453125,1.0,10,59,1,1159.1943359375,542.008422851562,0,1,objects,small,0,1,objects,A,small,EX,O,162,E04,676.275390625,0.0,0.0,0.0
0,0.0,1,26995,1.58203125,0.13671875,3.0,15,77,8,1385.55883789062,552.934936523438,0,1,objects,big,0,1,faces,A,female,EX,I,168,E04,701.470703125,0.0,0.0,0.0
1,0.0,0,26997,1.939453125,0.58203125,4.0,10,59,10,1188.46765136719,531.051635742188,0,1,objects,small,0,1,faces,A,female,EX,I,168,E04,701.470703125,0.0,0.0,0.0
2,0.0,0,27000,2.875,0.3828125,6.0,10,59,13,1189.52282714844,523.485473632812,0,1,objects,small,0,1,faces,A,female,EX,I,168,E04,701.470703125,0.0,0.0,0.0
0,0.0,0,27001,3.28515625,0.384765625,7.0,13,67,14,1308.87451171875,403.267608642578,0,1,objects,big,0,1,faces,A,female,EX,I,168,E04,701.470703125,0.0,0.0,0.0
0,0.0,0,27042,2.025390625,0.326171875,3.0,2,8,6,582.024475097656,875.755310058594,0,1,objects,big,0,1,faces,A,male,EX,F,170,E04,709.869140625,0.0,0.0,0.0
0,0.0,1,27045,2.859375,0.150390625,5.0,13,76,9,1362.83618164062,479.549621582031,0,1,objects,small,0,1,faces,A,male,EX,F,170,E04,709.869140625,0.0,0.0,0.0
0,0.0,0,27048,3.583984375,0.212890625,7.0,11,73,12,1380.3056640625,185.888137817383,0,1,objects,small,0,1,faces,A,male,EX,F,170,E04,709.869140625,0.0,0.0,0.0
0,1.0,0,27255,0.5390625,0.212890625,1.0,7,34,2,867.327026367188,760.941772460938,0,1,objects,big,1,1,faces,P,female,VS,I,180,E04,751.861328125,1.0,1.0,1.0
0,0.0,0,27345,0.552734375,0.1484375,1.0,4,22,1,755.864196777344,466.864990234375,0,1,objects,big,0,1,objects,A,small,EX,O,184,E04,768.658203125,0.0,0.0,0.0
0,0.0,0,27348,2.064453125,0.6875,2.0,2,16,4,652.0859375,779.197998046875,0,1,objects,small,0,1,objects,A,small,EX,O,184,E04,768.658203125,0.0,0.0,0.0
0,0.0,0,27350,2.97265625,0.22265625,3.0,10,49,6,1055.95251464844,421.428131103516,0,1,objects,big,0,1,objects,A,small,EX,O,184,E04,768.658203125,0.0,0.0,0.0
0,1.0,0,27583,2.078125,0.111328125,4.0,15,81,6,1408.24963378906,962.856811523438,0,1,objects,big,1,1,faces,P,female,VS,F,195,E04,814.849609375,1.0,1.0,1.0
0,1.0,0,27601,1.03125,0.146484375,3.0,8,62,4,1196.46008300781,888.897094726562,0,1,objects,small,1,1,faces,P,male,VS,I,196,E04,819.048828125,1.0,1.0,1.0
1,0.0,0,27625,1.7265625,0.390625,4.0,6,47,4,1081.16247558594,286.466339111328,0,1,objects,big,0,1,faces,A,male,EX,I,197,E04,823.248046875,0.0,0.0,0.0
1,0.0,0,27626,2.146484375,0.298828125,5.0,9,55,5,1165.75756835938,186.870422363281,0,1,objects,big,0,1,faces,A,male,EX,I,197,E04,823.248046875,0.0,0.0,0.0
2,0.0,0,27627,2.470703125,0.365234375,6.0,6,47,6,1066.43383789062,277.056182861328,0,1,objects,big,0,1,faces,A,male,EX,I,197,E04,823.248046875,0.0,0.0,0.0
2,0.0,0,27628,2.859375,0.431640625,7.0,9,55,7,1168.05700683594,181.67366027832,0,1,objects,big,0,1,faces,A,male,EX,I,197,E04,823.248046875,0.0,0.0,0.0
3,0.0,1,27629,3.31640625,0.193359375,8.0,6,47,8,1097.44946289062,244.822006225586,0,1,objects,big,0,1,faces,A,male,EX,I,197,E04,823.248046875,0.0,0.0,0.0
3,0.0,0,27631,3.689453125,0.171875,9.0,9,55,10,1184.94189453125,185.678466796875,0,1,objects,big,0,1,faces,A,male,EX,I,197,E04,823.248046875,0.0,0.0,0.0
1,0.0,0,27684,0.201171875,0.216796875,1.0,14,59,1,1115.61120605469,501.888763427734,0,1,objects,small,0,1,faces,A,female,EX,I,200,E04,835.845703125,0.0,0.0,0.0
2,0.0,0,27690,1.53515625,0.193359375,4.0,14,59,7,1199.27795410156,523.545959472656,0,1,objects,small,0,1,faces,A,female,EX,I,200,E04,835.845703125,0.0,0.0,0.0
0,0.0,0,27693,2.224609375,0.232421875,6.0,7,38,10,982.372680664062,256.506042480469,0,1,objects,small,0,1,faces,A,female,EX,I,200,E04,835.845703125,0.0,0.0,0.0
0,0.0,0,27694,2.4921875,0.150390625,7.0,15,74,11,1384.96118164062,243.132583618164,0,1,objects,big,0,1,faces,A,female,EX,I,200,E04,835.845703125,0.0,0.0,0.0
0,0.0,0,27709,1.25,0.18359375,1.0,5,21,2,748.957336425781,350.227691650391,0,1,objects,small,0,1,faces,A,female,EX,F,201,E04,840.044921875,0.0,0.0,0.0
0,0.0,0,27711,1.630859375,0.30859375,2.0,1,6,4,549.632507324219,666.184143066406,0,1,objects,small,0,1,faces,A,female,EX,F,201,E04,840.044921875,0.0,0.0,0.0
0,0.0,0,27712,1.96484375,0.421875,3.0,6,24,5,754.305053710938,679.365661621094,0,1,objects,big,0,1,faces,A,female,EX,F,201,E04,840.044921875,0.0,0.0,0.0
0,1.0,0,27748,0.435546875,0.22265625,1.0,3,7,3,509.67919921875,785.803161621094,0,1,objects,big,1,1,faces,P,female,VS,F,203,E04,848.443359375,1.0,1.0,1.0
0,1.0,0,27753,1.3515625,0.15625,4.0,9,52,8,1065.21301269531,773.735473632812,0,1,objects,big,1,1,faces,P,female,VS,F,203,E04,848.443359375,1.0,1.0,1.0
0,0.0,0,27873,0.7578125,0.16015625,2.0,15,69,4,1292.51037597656,594.615356445312,0,1,objects,small,0,1,faces,A,male,EX,F,209,E04,873.638671875,0.0,0.0,0.0
0,0.0,0,27969,0.494140625,0.279296875,2.0,3,18,2,663.332641601562,901.157409667969,0,1,objects,small,0,1,objects,A,big,EX,O,213,E04,890.435546875,0.0,0.0,0.0
1,0.0,0,27971,2.142578125,0.16796875,4.0,8,39,4,1007.23699951172,369.317138671875,0,1,objects,small,0,1,objects,A,big,EX,O,213,E04,890.435546875,0.0,0.0,0.0
2,0.0,0,27973,2.58203125,0.482421875,6.0,8,39,6,932.549438476562,328.140350341797,0,1,objects,small,0,1,objects,A,big,EX,O,213,E04,890.435546875,0.0,0.0,0.0
0,1.0,0,23073,0.294921875,0.119140625,1.0,15,68,1,1265.69677734375,516.471252441406,0,1,objects,big,1,1,faces,P,female,VS,F,1,E05,0.201171875,1.0,1.0,1.0
0,1.0,0,23113,0.556640625,0.162109375,2.0,4,14,2,638.741638183594,535.236389160156,0,1,objects,big,1,1,faces,P,male,VS,I,2,E05,4.400390625,1.0,1.0,1.0
0,1.0,0,23114,0.775390625,0.185546875,3.0,5,25,3,723.580261230469,762.073547363281,0,1,objects,big,1,1,faces,P,male,VS,I,2,E05,4.400390625,1.0,1.0,1.0
0,1.0,0,23116,1.177734375,0.17578125,4.0,9,56,5,1164.36730957031,249.487609863281,0,1,objects,small,1,1,faces,P,male,VS,I,2,E05,4.400390625,1.0,1.0,1.0
0,1.0,0,23117,1.39453125,0.197265625,5.0,10,64,6,1248.2802734375,171.180999755859,0,1,objects,small,1,1,faces,P,male,VS,I,2,E05,4.400390625,1.0,1.0,1.0
0,0.0,0,23246,0.23046875,0.189453125,1.0,8,32,1,852.073547363281,518.161560058594,0,1,objects,small,0,1,faces,A,female,EX,F,6,E05,21.197265625,0.0,0.0,0.0
0,0.0,1,23248,0.751953125,0.189453125,3.0,6,17,3,621.318176269531,823.948425292969,0,1,objects,big,0,1,faces,A,female,EX,F,6,E05,21.197265625,0.0,0.0,0.0
0,0.0,1,23252,1.580078125,0.154296875,5.0,15,73,7,1385.40185546875,136.088073730469,0,1,objects,small,0,1,faces,A,female,EX,F,6,E05,21.197265625,0.0,0.0,0.0
0,0.0,1,23254,2.1640625,0.28515625,6.0,4,10,9,645.786987304688,111.733772277832,0,1,objects,small,0,1,faces,A,female,EX,F,6,E05,21.197265625,0.0,0.0,0.0
1,1.0,0,23278,0.220703125,0.10546875,1.0,6,25,1,750.796508789062,746.707824707031,0,1,objects,big,1,1,faces,P,female,VS,F,7,E05,25.396484375,1.0,1.0,1.0
0,1.0,0,23554,1.23046875,0.181640625,5.0,2,10,7,688.707885742188,154.009857177734,0,1,objects,small,1,1,faces,P,female,VS,I,15,E05,58.990234375,1.0,1.0,1.0
0,0.0,1,23734,0.724609375,0.107421875,2.0,15,78,3,1331.48059082031,612.657287597656,0,1,objects,small,0,1,faces,A,male,EX,I,21,E05,84.185546875,0.0,0.0,0.0
0,0.0,1,23736,1.25390625,0.15625,3.0,3,17,5,639.094299316406,887.349426269531,0,1,objects,big,0,1,faces,A,male,EX,I,21,E05,84.185546875,0.0,0.0,0.0
0,0.0,0,23739,1.912109375,0.138671875,4.0,4,24,8,755.40478515625,649.115600585938,0,1,objects,big,0,1,faces,A,male,EX,I,21,E05,84.185546875,0.0,0.0,0.0
0,0.0,0,23747,3.966796875,0.37890625,10.0,12,64,16,1268.69299316406,132.383117675781,0,1,objects,small,0,1,faces,A,male,EX,I,21,E05,84.185546875,0.0,0.0,0.0
0,0.0,1,23768,1.302734375,0.134765625,2.0,15,81,4,1336.091796875,964.229309082031,0,1,objects,small,0,1,faces,A,male,EX,F,22,E05,88.384765625,0.0,0.0,0.0
0,0.0,0,23770,1.716796875,0.205078125,3.0,14,70,6,1262.50415039062,752.721801757812,0,1,objects,big,0,1,faces,A,male,EX,F,22,E05,88.384765625,0.0,0.0,0.0
0,0.0,0,23774,2.73828125,0.30078125,6.0,4,13,10,633.529907226562,433.501983642578,0,1,objects,big,0,1,faces,A,male,EX,F,22,E05,88.384765625,0.0,0.0,0.0
0,0.0,0,23796,0.48046875,0.32421875,2.0,8,46,3,1080.83618164062,107.898483276367,0,1,objects,small,0,1,objects,A,small,EX,O,23,E05,92.583984375,0.0,0.0,0.0
0,0.0,1,23799,1.37890625,0.20703125,5.0,9,47,6,1073.87866210938,202.584259033203,0,1,objects,small,0,1,objects,A,small,EX,O,23,E05,92.583984375,0.0,0.0,0.0
0,0.0,0,23807,3.169921875,0.255859375,10.0,5,24,14,750.169616699219,637.33642578125,0,1,objects,big,0,1,objects,A,small,EX,O,23,E05,92.583984375,0.0,0.0,0.0
0,0.0,0,23809,3.658203125,0.1875,12.0,3,17,16,641.761779785156,848.1298828125,0,1,objects,big,0,1,objects,A,small,EX,O,23,E05,92.583984375,0.0,0.0,0.0
0,0.0,1,23827,0.68359375,0.26171875,2.0,7,27,3,736.285522460938,965.189819335938,0,1,objects,big,0,1,faces,A,female,EX,I,24,E05,96.783203125,0.0,0.0,0.0
0,0.0,0,23833,1.939453125,0.12109375,5.0,15,78,9,1371.078125,611.872985839844,0,1,objects,small,0,1,faces,A,female,EX,I,24,E05,96.783203125,0.0,0.0,0.0
0,0.0,0,23841,3.390625,0.263671875,11.0,5,19,17,719.852905273438,117.238822937012,0,1,objects,small,0,1,faces,A,female,EX,I,24,E05,96.783203125,0.0,0.0,0.0
0,1.0,0,23853,0.23046875,0.1015625,1.0,9,42,1,969.622192382812,591.715698242188,0,1,objects,small,1,1,faces,P,female,VS,I,25,E05,100.982421875,1.0,1.0,1.0
0,0.0,0,23907,1.125,0.259765625,3.0,11,52,6,1047.04736328125,761.249084472656,0,1,objects,big,0,1,faces,A,male,EX,I,27,E05,109.380859375,0.0,0.0,0.0
0,0.0,1,23909,1.740234375,0.125,5.0,5,36,8,904.952209472656,956.318908691406,0,1,objects,small,0,1,faces,A,male,EX,I,27,E05,109.380859375,0.0,0.0,0.0
0,0.0,0,23913,2.591796875,0.16015625,7.0,1,15,12,628.636657714844,659.091369628906,0,1,objects,small,0,1,faces,A,male,EX,I,27,E05,109.380859375,0.0,0.0,0.0
0,0.0,0,23918,3.734375,0.279296875,10.0,3,28,17,830.282775878906,134.851791381836,0,1,objects,small,0,1,faces,A,male,EX,I,27,E05,109.380859375,0.0,0.0,0.0
0,1.0,0,24064,0.62890625,0.126953125,2.0,4,8,3,582.595397949219,876.773193359375,0,1,objects,big,1,1,faces,P,female,VS,F,32,E05,130.376953125,1.0,1.0,1.0
0,0.0,0,24263,0.376953125,0.177734375,1.0,4,13,2,653.898803710938,439.912078857422,0,1,objects,small,0,1,objects,A,big,EX,O,38,E05,155.572265625,0.0,0.0,0.0
0,0.0,0,24273,2.859375,0.109375,7.0,8,35,12,903.286193847656,887.832702636719,0,1,objects,small,0,1,objects,A,big,EX,O,38,E05,155.572265625,0.0,0.0,0.0
0,0.0,0,24274,2.99609375,0.248046875,8.0,9,44,13,921.704162597656,867.326354980469,0,1,objects,big,0,1,objects,A,big,EX,O,38,E05,155.572265625,0.0,0.0,0.0
0,0.0,0,24276,3.515625,0.296875,9.0,7,34,15,820.93310546875,759.472473144531,0,1,objects,big,0,1,objects,A,big,EX,O,38,E05,155.572265625,0.0,0.0,0.0
0,1.0,0,24341,1.427734375,0.12890625,5.0,13,61,6,1144.80224609375,744.017272949219,0,1,objects,small,1,1,faces,P,male,VS,F,40,E05,163.970703125,1.0,1.0,1.0
0,0.0,0,24506,2.181640625,0.349609375,6.0,14,69,9,1281.1796875,633.420654296875,0,1,objects,small,0,1,faces,A,female,EX,I,45,E05,184.966796875,0.0,0.0,0.0
0,0.0,1,24510,3.75,0.123046875,9.0,8,57,13,1119.19116210938,363.965484619141,0,1,objects,small,0,1,faces,A,female,EX,I,45,E05,184.966796875,0.0,0.0,0.0
0,0.0,1,24533,0.8203125,0.150390625,2.0,15,78,3,1369.4765625,640.316528320312,0,1,objects,big,0,1,faces,A,male,EX,F,46,E05,189.166015625,0.0,0.0,0.0
0,0.0,0,24539,2.462890625,0.62109375,6.0,4,13,9,639.013610839844,428.921539306641,0,1,objects,small,0,1,faces,A,male,EX,F,46,E05,189.166015625,0.0,0.0,0.0
0,1.0,0,24565,0.6171875,0.13671875,2.0,10,52,3,1060.13244628906,744.911804199219,0,1,objects,big,1,1,faces,P,female,VS,F,47,E05,193.365234375,1.0,1.0,1.0
0,0.0,0,24600,0.6328125,0.205078125,2.0,5,15,3,635.1416015625,625.057861328125,0,1,objects,small,0,1,objects,A,small,EX,O,48,E05,197.564453125,0.0,0.0,0.0
0,0.0,0,24603,1.498046875,0.38671875,4.0,4,14,6,650.285766601562,573.496032714844,0,1,objects,big,0,1,objects,A,small,EX,O,48,E05,197.564453125,0.0,0.0,0.0
0,0.0,0,24611,3.8125,0.298828125,9.0,10,51,14,1046.78637695312,630.550231933594,0,1,objects,small,0,1,objects,A,small,EX,O,48,E05,197.564453125,0.0,0.0,0.0
0,1.0,0,24629,0.365234375,0.111328125,1.0,11,50,4,1091.19055175781,544.857177734375,0,1,objects,big,1,1,faces,P,female,VS,F,49,E05,201.763671875,1.0,1.0,1.0
0,0.0,0,24687,0.849609375,0.203125,3.0,3,30,4,877.457946777344,351.746246337891,0,1,objects,small,0,1,faces,A,male,EX,F,51,E05,210.162109375,0.0,0.0,0.0
0,0.0,0,24692,2.05078125,0.404296875,6.0,12,60,9,1182.44604492188,639.335388183594,0,1,objects,small,0,1,faces,A,male,EX,F,51,E05,210.162109375,0.0,0.0,0.0
0,0.0,0,24694,2.884765625,0.232421875,8.0,1,9,11,537.553588867188,945.263061523438,0,1,objects,small,0,1,faces,A,male,EX,F,51,E05,210.162109375,0.0,0.0,0.0
0,0.0,1,24695,3.19140625,0.130859375,9.0,10,53,12,1019.32275390625,830.974731445312,0,1,objects,big,0,1,faces,A,male,EX,F,51,E05,210.162109375,0.0,0.0,0.0
0,0.0,1,24876,0.494140625,0.2421875,1.0,6,32,3,854.019226074219,513.506469726562,0,1,objects,big,0,1,objects,A,big,EX,O,57,E05,235.357421875,0.0,0.0,0.0
0,0.0,0,24878,1.046875,0.259765625,2.0,1,5,5,564.392395019531,520.757080078125,0,1,objects,big,0,1,objects,A,big,EX,O,57,E05,235.357421875,0.0,0.0,0.0
0,0.0,0,24879,1.369140625,0.1796875,3.0,2,12,6,637.178405761719,332.798828125,0,1,objects,small,0,1,objects,A,big,EX,O,57,E05,235.357421875,0.0,0.0,0.0
0,0.0,0,24888,3.70703125,0.228515625,8.0,10,52,15,1054.88220214844,716.702941894531,0,1,objects,big,0,1,objects,A,big,EX,O,57,E05,235.357421875,0.0,0.0,0.0
0,0.0,0,24889,3.990234375,0.564453125,9.0,7,33,16,867.303894042969,641.572509765625,0,1,objects,small,0,1,objects,A,big,EX,O,57,E05,235.357421875,0.0,0.0,0.0
0,0.0,1,24908,0.259765625,0.1796875,1.0,3,23,1,744.298645019531,515.163879394531,0,1,objects,small,0,1,faces,A,female,EX,F,58,E05,239.556640625,0.0,0.0,0.0
0,0.0,0,24910,0.873046875,0.373046875,2.0,2,15,3,636.735534667969,648.496276855469,0,1,objects,small,0,1,faces,A,female,EX,F,58,E05,239.556640625,0.0,0.0,0.0
0,0.0,1,24914,1.84375,0.21484375,4.0,15,79,7,1394.57153320312,717.852905273438,0,1,objects,big,0,1,faces,A,female,EX,F,58,E05,239.556640625,0.0,0.0,0.0
0,0.0,0,24919,2.861328125,0.580078125,8.0,5,47,12,1065.3349609375,239.13362121582,0,1,objects,big,0,1,faces,A,female,EX,F,58,E05,239.556640625,0.0,0.0,0.0
0,1.0,0,24942,0.97265625,0.1640625,2.0,10,65,6,1254.81628417969,212.547805786133,0,1,objects,big,1,1,faces,P,female,VS,F,59,E05,243.755859375,1.0,1.0,1.0
1,0.0,0,25032,0.80078125,0.24609375,2.0,5,29,4,859.75927734375,224.086410522461,0,1,objects,big,0,1,objects,A,small,EX,O,62,E05,256.353515625,0.0,0.0,0.0
0,0.0,0,25034,1.482421875,0.3671875,4.0,12,64,6,1264.83618164062,132.339996337891,0,1,objects,small,0,1,objects,A,small,EX,O,62,E05,256.353515625,0.0,0.0,0.0
0,0.0,1,25038,2.58203125,0.130859375,7.0,10,51,10,1093.09790039062,612.117858886719,0,1,objects,small,0,1,objects,A,small,EX,O,62,E05,256.353515625,0.0,0.0,0.0
2,0.0,0,25042,3.400390625,0.1640625,9.0,5,29,14,865.075256347656,218.92951965332,0,1,objects,big,0,1,objects,A,small,EX,O,62,E05,256.353515625,0.0,0.0,0.0
0,0.0,0,25574,1.47265625,0.48046875,2.0,12,62,6,1163.40979003906,796.982788085938,0,1,objects,small,0,1,faces,A,male,EX,I,73,E05,302.544921875,0.0,0.0,0.0
0,0.0,0,25577,2.560546875,0.203125,4.0,15,81,9,1383.48388671875,907.270141601562,0,1,objects,big,0,1,faces,A,male,EX,I,73,E05,302.544921875,0.0,0.0,0.0
0,0.0,1,25670,0.603515625,0.212890625,2.0,2,16,4,633.031127929688,701.689086914062,0,1,objects,small,0,1,faces,A,male,EX,F,76,E05,315.142578125,0.0,0.0,0.0
1,0.0,0,25672,1.41796875,0.3203125,3.0,3,17,6,612.536315917969,795.721984863281,0,1,objects,big,0,1,faces,A,male,EX,F,76,E05,315.142578125,0.0,0.0,0.0
2,0.0,0,25674,2.0,0.357421875,4.0,3,17,8,621.457946777344,797.1455078125,0,1,objects,big,0,1,faces,A,male,EX,F,76,E05,315.142578125,0.0,0.0,0.0
1,1.0,0,25831,0.994140625,0.16796875,2.0,3,11,5,616.762817382812,221.718276977539,0,1,objects,big,1,1,faces,P,female,VS,F,81,E05,336.138671875,1.0,1.0,1.0
2,1.0,0,25834,1.69140625,0.134765625,5.0,3,11,8,616.543151855469,210.898590087891,0,1,objects,big,1,1,faces,P,female,VS,F,81,E05,336.138671875,1.0,1.0,1.0
0,1.0,0,25835,1.900390625,0.154296875,6.0,13,70,9,1242.61535644531,772.783874511719,0,1,objects,small,1,1,faces,P,female,VS,F,81,E05,336.138671875,1.0,1.0,1.0
0,0.0,1,25965,1.662109375,0.115234375,3.0,15,81,6,1363.8994140625,928.441284179688,0,1,objects,small,0,1,faces,A,female,EX,F,85,E05,352.935546875,0.0,0.0,0.0
0,0.0,0,25968,2.193359375,0.44921875,4.0,6,38,9,941.009765625,200.512069702148,0,1,objects,small,0,1,faces,A,female,EX,F,85,E05,352.935546875,0.0,0.0,0.0
0,0.0,0,25970,2.869140625,0.208984375,6.0,12,75,11,1368.04150390625,318.643371582031,0,1,objects,big,0,1,faces,A,female,EX,F,85,E05,352.935546875,0.0,0.0,0.0
1,0.0,0,26249,1.419921875,0.20703125,3.0,4,16,5,637.416442871094,701.860473632812,0,1,objects,big,0,1,faces,A,female,EX,I,94,E05,390.728515625,0.0,0.0,0.0
0,0.0,1,26250,1.697265625,0.138671875,4.0,3,12,6,662.76806640625,323.086853027344,0,1,objects,small,0,1,faces,A,female,EX,I,94,E05,390.728515625,0.0,0.0,0.0
2,0.0,0,26253,2.357421875,0.552734375,5.0,4,16,9,635.705932617188,716.700439453125,0,1,objects,big,0,1,faces,A,female,EX,I,94,E05,390.728515625,0.0,0.0,0.0
0,0.0,0,26338,0.91015625,0.166015625,3.0,3,26,5,731.596984863281,864.48388671875,0,1,objects,small,0,1,faces,A,female,EX,I,97,E05,403.326171875,0.0,0.0,0.0
0,0.0,0,26339,1.1328125,0.21875,4.0,6,45,6,953.9990234375,948.349487304688,0,1,objects,big,0,1,faces,A,female,EX,I,97,E05,403.326171875,0.0,0.0,0.0
1,0.0,1,26341,1.720703125,0.2265625,6.0,7,48,8,1056.06921386719,334.3916015625,0,1,objects,small,0,1,faces,A,female,EX,I,97,E05,403.326171875,0.0,0.0,0.0
2,0.0,0,26349,3.9140625,0.537109375,11.0,7,48,16,1035.26818847656,344.353271484375,0,1,objects,small,0,1,faces,A,female,EX,I,97,E05,403.326171875,0.0,0.0,0.0
0,0.0,0,26389,0.53515625,0.123046875,1.0,6,22,3,709.969421386719,485.063934326172,0,1,objects,big,0,1,faces,A,male,EX,F,99,E05,411.724609375,0.0,0.0,0.0
0,0.0,0,26390,0.716796875,0.1484375,2.0,3,5,4,521.077087402344,490.9169921875,0,1,objects,small,0,1,faces,A,male,EX,F,99,E05,411.724609375,0.0,0.0,0.0
0,0.0,0,26399,3.271484375,0.45703125,9.0,11,49,13,1053.45837402344,457.117340087891,0,1,objects,big,0,1,faces,A,male,EX,F,99,E05,411.724609375,0.0,0.0,0.0
1,0.0,0,26513,2.697265625,0.31640625,7.0,6,40,12,954.906555175781,419.113220214844,0,1,objects,big,0,1,faces,A,female,EX,F,103,E05,428.521484375,0.0,0.0,0.0
0,0.0,0,26514,3.0546875,0.193359375,8.0,8,48,13,1049.51696777344,300.722778320312,0,1,objects,small,0,1,faces,A,female,EX,F,103,E05,428.521484375,0.0,0.0,0.0
2,0.0,0,26517,3.8046875,0.626953125,10.0,6,40,16,979.231689453125,440.472534179688,0,1,objects,big,0,1,faces,A,female,EX,F,103,E05,428.521484375,0.0,0.0,0.0
1,0.0,1,26532,0.271484375,0.11328125,1.0,8,23,1,730.210571289062,562.815734863281,0,1,objects,small,0,1,objects,A,small,EX,O,104,E05,432.720703125,0.0,0.0,0.0
2,0.0,0,26536,1.01171875,0.404296875,3.0,8,23,5,737.757141113281,527.491149902344,0,1,objects,small,0,1,objects,A,small,EX,O,104,E05,432.720703125,0.0,0.0,0.0
0,0.0,0,26541,2.328125,0.11328125,6.0,6,18,10,674.723693847656,942.279724121094,0,1,objects,small,0,1,objects,A,small,EX,O,104,E05,432.720703125,0.0,0.0,0.0
0,0.0,1,26547,3.65625,0.28125,9.0,7,20,16,741.768310546875,223.38557434082,0,1,objects,big,0,1,objects,A,small,EX,O,104,E05,432.720703125,0.0,0.0,0.0
0,1.0,0,26565,0.375,0.130859375,1.0,9,40,2,936.293334960938,440.361145019531,0,1,objects,small,1,1,faces,P,female,VS,F,105,E05,436.919921875,1.0,1.0,1.0
0,0.0,0,26635,1.759765625,0.3125,4.0,10,42,7,973.299926757812,644.632995605469,0,1,objects,small,0,1,faces,A,male,EX,I,107,E05,445.318359375,0.0,0.0,0.0
0,0.0,0,26637,2.2734375,0.623046875,6.0,11,49,9,1056.94543457031,445.010711669922,0,1,objects,big,0,1,faces,A,male,EX,I,107,E05,445.318359375,0.0,0.0,0.0
0,0.0,1,26638,2.958984375,0.119140625,7.0,8,37,10,930.814208984375,172.947128295898,0,1,objects,big,0,1,faces,A,male,EX,I,107,E05,445.318359375,0.0,0.0,0.0
0,1.0,0,26781,0.546875,0.189453125,2.0,9,31,2,840.564270019531,414.198211669922,0,1,objects,big,1,1,faces,P,female,VS,F,112,E05,466.314453125,1.0,1.0,1.0
0,1.0,0,26782,0.771484375,0.130859375,3.0,8,30,3,851.333801269531,339.906585693359,0,1,objects,big,1,1,faces,P,female,VS,F,112,E05,466.314453125,1.0,1.0,1.0
0,1.0,0,26943,0.919921875,0.240234375,3.0,2,4,4,561.145935058594,419.127227783203,0,1,objects,big,1,1,faces,P,female,VS,F,117,E05,487.310546875,1.0,1.0,1.0
0,1.0,0,26944,1.212890625,0.13671875,4.0,5,12,5,622.159240722656,323.589202880859,0,1,objects,big,1,1,faces,P,female,VS,F,117,E05,487.310546875,1.0,1.0,1.0
0,1.0,0,26951,2.638671875,0.220703125,10.0,12,64,12,1244.46887207031,142.218765258789,0,1,objects,small,1,1,faces,P,female,VS,F,117,E05,487.310546875,1.0,1.0,1.0
0,1.0,0,26952,2.9375,0.115234375,11.0,15,78,13,1322.35827636719,622.429809570312,0,1,objects,small,1,1,faces,P,female,VS,F,117,E05,487.310546875,1.0,1.0,1.0
1,0.0,0,27060,0.35546875,0.125,1.0,10,43,2,962.388366699219,781.191955566406,0,1,objects,small,0,1,faces,A,female,EX,I,121,E05,504.107421875,0.0,0.0,0.0
2,0.0,1,27062,0.77734375,0.267578125,3.0,10,43,4,955.9833984375,759.611999511719,0,1,objects,small,0,1,faces,A,female,EX,I,121,E05,504.107421875,0.0,0.0,0.0
0,0.0,0,27065,1.791015625,0.552734375,5.0,5,16,7,634.265808105469,765.647155761719,0,1,objects,small,0,1,faces,A,female,EX,I,121,E05,504.107421875,0.0,0.0,0.0
0,0.0,0,27070,3.30078125,0.314453125,8.0,6,21,12,743.982849121094,330.290924072266,0,1,objects,big,0,1,faces,A,female,EX,I,121,E05,504.107421875,0.0,0.0,0.0
0,0.0,0,27183,0.42578125,0.490234375,1.0,6,40,2,948.110900878906,454.188812255859,0,1,objects,small,0,1,faces,A,male,EX,F,125,E05,520.904296875,0.0,0.0,0.0
0,0.0,1,27212,0.6875,0.1640625,2.0,4,37,4,941.439086914062,176.63395690918,0,1,objects,small,0,1,objects,A,small,EX,O,126,E05,525.103515625,0.0,0.0,0.0
0,0.0,0,27242,0.6171875,0.2890625,1.0,2,13,3,646.606811523438,448.26318359375,0,1,objects,big,0,1,faces,A,male,EX,I,127,E05,529.302734375,0.0,0.0,0.0
1,0.0,0,27249,2.470703125,0.234375,7.0,6,34,10,831.419189453125,692.264892578125,0,1,objects,big,0,1,faces,A,male,EX,I,127,E05,529.302734375,0.0,0.0,0.0
0,0.0,0,27250,2.76171875,0.24609375,8.0,3,15,11,644.992553710938,675.396911621094,0,1,objects,small,0,1,faces,A,male,EX,I,127,E05,529.302734375,0.0,0.0,0.0
2,0.0,0,27251,3.064453125,0.30859375,9.0,6,34,12,874.637390136719,749.625366210938,0,1,objects,big,0,1,faces,A,male,EX,I,127,E05,529.302734375,0.0,0.0,0.0
0,1.0,0,27318,3.076171875,0.171875,9.0,12,61,15,1120.76867675781,775.131042480469,0,1,objects,big,1,1,faces,P,female,VS,I,129,E05,537.701171875,1.0,1.0,1.0
0,1.0,0,27319,3.30859375,0.240234375,10.0,6,27,16,755.163757324219,979.310119628906,0,1,objects,big,1,1,faces,P,female,VS,I,129,E05,537.701171875,1.0,1.0,1.0
0,1.0,0,27527,0.529296875,0.15625,1.0,4,12,3,617.025085449219,358.3447265625,0,1,objects,big,1,1,faces,P,male,VS,F,136,E05,567.095703125,1.0,1.0,1.0
0,1.0,1,27531,1.53515625,0.14453125,5.0,8,36,7,903.770385742188,893.236267089844,0,1,objects,big,1,1,faces,P,male,VS,F,136,E05,567.095703125,1.0,1.0,1.0
0,1.0,0,27657,2.181640625,0.234375,6.0,7,47,12,1023.42156982422,234.68913269043,0,1,objects,big,1,1,faces,P,female,VS,I,140,E05,583.892578125,1.0,1.0,1.0
0,1.0,0,27659,2.62109375,0.25,8.0,12,66,14,1266.68322753906,339.405212402344,0,1,objects,small,1,1,faces,P,female,VS,I,140,E05,583.892578125,1.0,1.0,1.0
0,1.0,0,27660,2.904296875,0.16796875,9.0,11,65,15,1252.11682128906,278.138031005859,0,1,objects,small,1,1,faces,P,female,VS,I,140,E05,583.892578125,1.0,1.0,1.0
0,1.0,0,27661,3.125,0.1796875,10.0,8,55,16,1130.28234863281,168.750305175781,0,1,objects,big,1,1,faces,P,female,VS,I,140,E05,583.892578125,1.0,1.0,1.0
0,0.0,1,27959,0.662109375,0.166015625,2.0,5,24,3,727.353637695312,611.868103027344,0,1,objects,small,0,1,objects,A,small,EX,O,145,E05,604.888671875,0.0,0.0,0.0
0,0.0,1,27963,1.7734375,0.25,4.0,8,30,7,847.382751464844,317.959991455078,0,1,objects,small,0,1,objects,A,small,EX,O,145,E05,604.888671875,0.0,0.0,0.0
0,0.0,0,27967,2.728515625,0.271484375,5.0,12,46,11,1038.18115234375,159.953262329102,0,1,objects,big,0,1,objects,A,small,EX,O,145,E05,604.888671875,0.0,0.0,0.0
0,1.0,0,27989,0.544921875,0.1953125,1.0,9,42,3,932.534912109375,633.175170898438,0,1,objects,big,1,1,faces,P,female,VS,F,146,E05,609.087890625,1.0,1.0,1.0
0,1.0,0,27992,1.138671875,0.251953125,3.0,6,30,6,846.336059570312,337.641754150391,0,1,objects,small,1,1,faces,P,female,VS,F,146,E05,609.087890625,1.0,1.0,1.0
0,1.0,0,27998,2.51171875,0.19140625,8.0,13,57,12,1156.42797851562,353.998779296875,0,1,objects,small,1,1,faces,P,female,VS,F,146,E05,609.087890625,1.0,1.0,1.0
0,0.0,1,28151,1.46484375,0.330078125,4.0,7,37,6,918.057678222656,134.602142333984,0,1,objects,big,0,1,faces,A,female,EX,I,151,E05,630.083984375,0.0,0.0,0.0
1,0.0,1,28153,2.021484375,0.158203125,5.0,11,52,8,1077.68981933594,735.574279785156,0,1,objects,small,0,1,faces,A,female,EX,I,151,E05,630.083984375,0.0,0.0,0.0
0,0.0,0,28160,3.62109375,0.208984375,9.0,2,16,15,619.384399414062,746.726501464844,0,1,objects,big,0,1,faces,A,female,EX,I,151,E05,630.083984375,0.0,0.0,0.0
2,0.0,0,28161,3.890625,0.40625,10.0,11,52,16,1039.07629394531,735.913818359375,0,1,objects,small,0,1,faces,A,female,EX,I,151,E05,630.083984375,0.0,0.0,0.0
1,0.0,0,28176,0.603515625,0.3515625,2.0,4,21,3,724.924926757812,333.962585449219,0,1,objects,small,0,1,faces,A,male,EX,F,152,E05,634.283203125,0.0,0.0,0.0
2,0.0,0,28178,1.412109375,0.44921875,4.0,4,21,5,729.104553222656,345.523529052734,0,1,objects,small,0,1,faces,A,male,EX,F,152,E05,634.283203125,0.0,0.0,0.0
0,0.0,0,28180,2.099609375,0.337890625,5.0,5,24,7,743.390502929688,685.518859863281,0,1,objects,big,0,1,faces,A,male,EX,F,152,E05,634.283203125,0.0,0.0,0.0
0,1.0,0,28263,0.275390625,0.119140625,1.0,7,40,1,954.7900390625,479.736602783203,0,1,objects,small,1,1,faces,P,male,VS,F,155,E05,646.880859375,1.0,1.0,1.0
0,1.0,0,28265,0.708984375,0.150390625,3.0,2,2,3,543.874084472656,239.738708496094,0,1,objects,small,1,1,faces,P,male,VS,F,155,E05,646.880859375,1.0,1.0,1.0
0,1.0,0,28278,3.404296875,0.154296875,11.0,3,8,16,538.080078125,858.239807128906,0,1,objects,small,1,1,faces,P,male,VS,F,155,E05,646.880859375,1.0,1.0,1.0
1,0.0,0,28360,0.6875,0.357421875,2.0,9,59,3,1159.24230957031,556.570739746094,0,1,objects,small,0,1,objects,A,big,EX,O,158,E05,659.478515625,0.0,0.0,0.0
2,0.0,1,28364,1.806640625,0.10546875,5.0,9,59,7,1149.56884765625,574.453491210938,0,1,objects,small,0,1,objects,A,big,EX,O,158,E05,659.478515625,0.0,0.0,0.0
0,0.0,0,28366,2.365234375,0.501953125,6.0,6,46,9,1031.52490234375,151.013366699219,0,1,objects,big,0,1,objects,A,big,EX,O,158,E05,659.478515625,0.0,0.0,0.0
0,0.0,0,28369,3.599609375,0.31640625,9.0,15,74,12,1351.51171875,248.679351806641,0,1,objects,big,0,1,objects,A,big,EX,O,158,E05,659.478515625,0.0,0.0,0.0
0,0.0,0,28622,2.587890625,0.220703125,4.0,8,28,9,848.914611816406,142.85986328125,0,1,objects,small,0,1,faces,A,female,EX,F,166,E05,693.072265625,0.0,0.0,0.0
0,0.0,1,28643,0.4765625,0.140625,2.0,7,31,2,904.438903808594,433.012237548828,0,1,objects,small,0,1,faces,A,male,EX,I,167,E05,697.271484375,0.0,0.0,0.0
0,0.0,1,28651,2.66015625,0.638671875,6.0,2,6,10,534.26806640625,690.350708007812,0,1,objects,big,0,1,faces,A,male,EX,I,167,E05,697.271484375,0.0,0.0,0.0
0,0.0,0,28814,1.0234375,0.244140625,2.0,9,55,5,1164.01953125,186.240615844727,0,1,objects,big,0,1,faces,A,female,EX,F,173,E05,722.466796875,0.0,0.0,0.0
0,0.0,1,28818,2.033203125,0.248046875,4.0,5,36,9,814.413146972656,977.589965820312,0,1,objects,big,0,1,faces,A,female,EX,F,173,E05,722.466796875,0.0,0.0,0.0
0,0.0,0,28824,3.3046875,0.58984375,7.0,14,76,15,1371.08068847656,453.700134277344,0,1,objects,small,0,1,faces,A,female,EX,F,173,E05,722.466796875,0.0,0.0,0.0
0,0.0,1,28840,0.373046875,0.2578125,1.0,6,32,2,851.926208496094,562.432067871094,0,1,objects,big,0,1,objects,A,small,EX,O,174,E05,726.666015625,0.0,0.0,0.0
0,0.0,0,28845,1.58984375,0.37109375,4.0,3,19,7,736.682556152344,173.448791503906,0,1,objects,small,0,1,objects,A,small,EX,O,174,E05,726.666015625,0.0,0.0,0.0
0,0.0,0,28849,2.6171875,0.3125,6.0,10,58,11,1163.70715332031,462.476165771484,0,1,objects,small,0,1,objects,A,small,EX,O,174,E05,726.666015625,0.0,0.0,0.0
0,0.0,1,28851,3.251953125,0.134765625,8.0,12,69,13,1242.99304199219,640.57666015625,0,1,objects,big,0,1,objects,A,small,EX,O,174,E05,726.666015625,0.0,0.0,0.0
0,0.0,0,28855,3.984375,0.279296875,9.0,14,80,17,1391.5537109375,877.901611328125,0,1,objects,small,0,1,objects,A,small,EX,O,174,E05,726.666015625,0.0,0.0,0.0
0,0.0,0,28874,0.8046875,0.173828125,2.0,10,53,4,1072.50012207031,886.0390625,0,1,objects,small,0,1,faces,A,male,EX,I,175,E05,730.865234375,0.0,0.0,0.0
0,0.0,0,28878,1.70703125,0.19921875,4.0,3,12,8,655.537658691406,380.750854492188,0,1,objects,big,0,1,faces,A,male,EX,I,175,E05,730.865234375,0.0,0.0,0.0
0,0.0,0,28880,2.30078125,0.40234375,6.0,9,46,10,1054.13500976562,173.433975219727,0,1,objects,small,0,1,faces,A,male,EX,I,175,E05,730.865234375,0.0,0.0,0.0
0,0.0,0,28882,2.919921875,0.517578125,7.0,12,58,12,1147.484375,472.431060791016,0,1,objects,big,0,1,faces,A,male,EX,I,175,E05,730.865234375,0.0,0.0,0.0
0,0.0,0,29019,1.203125,0.224609375,3.0,11,59,5,1165.33984375,578.637878417969,0,1,objects,small,0,1,objects,A,big,EX,O,180,E05,751.861328125,0.0,0.0,0.0
0,0.0,0,29023,2.150390625,0.12109375,6.0,4,23,9,781.947692871094,557.859680175781,0,1,objects,big,0,1,objects,A,big,EX,O,180,E05,751.861328125,0.0,0.0,0.0
0,1.0,0,29107,0.68359375,0.14453125,1.0,11,51,3,1069.63793945312,657.899658203125,0,1,objects,big,1,1,faces,P,female,VS,I,183,E05,764.458984375,1.0,1.0,1.0
0,1.0,0,29108,0.888671875,0.12109375,2.0,13,58,4,1131.11010742188,449.787017822266,0,1,objects,big,1,1,faces,P,female,VS,I,183,E05,764.458984375,1.0,1.0,1.0
0,0.0,0,29139,0.607421875,0.2890625,2.0,7,30,4,858.815856933594,373.896392822266,0,1,objects,big,0,1,faces,A,male,EX,F,184,E05,768.658203125,0.0,0.0,0.0
0,0.0,0,29147,3.8828125,0.18359375,4.0,8,36,12,848.860290527344,987.424560546875,0,1,objects,small,0,1,faces,A,male,EX,F,184,E05,768.658203125,0.0,0.0,0.0
0,1.0,0,29225,0.404296875,0.1875,1.0,8,25,2,733.734375,771.466003417969,0,1,objects,small,1,1,faces,P,female,VS,I,187,E05,781.255859375,1.0,1.0,1.0
0,1.0,0,29230,1.46484375,0.1171875,3.0,7,22,7,747.546813964844,425.703155517578,0,1,objects,big,1,1,faces,P,female,VS,I,187,E05,781.255859375,1.0,1.0,1.0
0,1.0,0,29283,0.392578125,0.11328125,2.0,6,33,2,865.376770019531,655.544067382812,0,1,objects,small,1,1,faces,P,female,VS,I,189,E05,789.654296875,1.0,1.0,1.0
0,0.0,0,29319,1.43359375,0.78515625,5.0,1,1,6,539.791259765625,175.334243774414,0,1,objects,big,0,1,faces,A,female,EX,I,190,E05,793.853515625,0.0,0.0,0.0
0,0.0,1,29320,2.287109375,0.28125,6.0,8,38,7,962.869689941406,192.699081420898,0,1,objects,big,0,1,faces,A,female,EX,I,190,E05,793.853515625,0.0,0.0,0.0
0,0.0,1,29324,3.65625,0.11328125,8.0,11,58,11,1188.95129394531,483.108428955078,0,1,objects,small,0,1,faces,A,female,EX,I,190,E05,793.853515625,0.0,0.0,0.0
0,0.0,1,29408,1.51953125,0.203125,4.0,15,70,8,1265.18969726562,778.289611816406,0,1,objects,big,0,1,objects,A,big,EX,O,193,E05,806.451171875,0.0,0.0,0.0
0,0.0,0,29412,2.396484375,0.2265625,6.0,8,44,12,940.813903808594,870.734985351562,0,1,objects,small,0,1,objects,A,big,EX,O,193,E05,806.451171875,0.0,0.0,0.0
0,0.0,0,29557,1.966796875,0.212890625,1.0,8,39,9,921.832153320312,327.731292724609,0,1,objects,small,0,1,faces,A,male,EX,I,198,E05,827.447265625,0.0,0.0,0.0
0,0.0,0,29559,2.484375,0.564453125,2.0,10,57,11,1114.15551757812,325.810821533203,0,1,objects,big,0,1,faces,A,male,EX,I,198,E05,827.447265625,0.0,0.0,0.0
0,0.0,0,29676,2.615234375,0.525390625,2.0,14,69,9,1215.72180175781,636.509765625,0,1,objects,small,0,1,faces,A,male,EX,F,202,E05,844.244140625,0.0,0.0,0.0
0,1.0,0,29791,0.216796875,0.1484375,1.0,3,23,1,780.665893554688,557.246398925781,0,1,objects,big,1,1,faces,P,female,VS,I,207,E05,865.240234375,1.0,1.0,1.0
0,1.0,0,29793,0.705078125,0.27734375,3.0,5,39,3,994.338134765625,332.347351074219,0,1,objects,big,1,1,faces,P,female,VS,I,207,E05,865.240234375,1.0,1.0,1.0
0,0.0,0,30025,1.77734375,0.279296875,2.0,12,66,7,1210.00256347656,355.480346679688,0,1,objects,big,0,1,faces,A,female,EX,I,215,E05,898.833984375,0.0,0.0,0.0
0,0.0,0,23643,0.791015625,0.244140625,1.0,4,12,4,642.138610839844,315.544494628906,0,1,objects,big,0,1,faces,A,female,EX,F,3,E12,8.599609375,0.0,0.0,0.0
0,0.0,1,23656,3.62109375,0.4140625,7.0,2,5,17,534.980407714844,529.705505371094,0,1,objects,small,0,1,faces,A,female,EX,F,3,E12,8.599609375,0.0,0.0,0.0
0,0.0,1,23711,0.876953125,0.404296875,3.0,3,19,4,722.609252929688,134.368423461914,0,1,objects,big,0,1,faces,A,male,EX,F,5,E12,16.998046875,0.0,0.0,0.0
0,0.0,1,23713,1.646484375,0.1796875,4.0,15,75,6,1342.4599609375,346.178497314453,0,1,objects,big,0,1,faces,A,male,EX,F,5,E12,16.998046875,0.0,0.0,0.0
0,0.0,1,23722,3.732421875,0.109375,10.0,2,13,15,680.713012695312,415.07568359375,0,1,objects,small,0,1,faces,A,male,EX,F,5,E12,16.998046875,0.0,0.0,0.0
0,1.0,0,23908,0.474609375,0.1015625,1.0,5,32,2,847.566345214844,544.966064453125,0,1,objects,big,1,1,faces,P,female,VS,I,11,E12,42.193359375,1.0,1.0,1.0
0,0.0,0,24044,3.427734375,0.1484375,10.0,9,42,14,919.468627929688,650.24169921875,0,1,objects,small,0,1,objects,A,small,EX,O,15,E12,58.990234375,0.0,0.0,0.0
0,0.0,0,24045,3.62109375,0.16796875,11.0,8,33,15,847.650451660156,636.4697265625,0,1,objects,big,0,1,objects,A,small,EX,O,15,E12,58.990234375,0.0,0.0,0.0
0,0.0,0,24046,3.84375,0.177734375,12.0,10,52,16,1032.96923828125,736.025268554688,0,1,objects,small,0,1,objects,A,small,EX,O,15,E12,58.990234375,0.0,0.0,0.0
0,1.0,0,24152,1.33203125,0.189453125,2.0,4,31,6,830.2451171875,465.251403808594,0,1,objects,small,1,1,faces,P,female,VS,F,19,E12,75.787109375,1.0,1.0,1.0
1,0.0,1,24303,0.240234375,0.111328125,1.0,4,32,1,887.362243652344,552.099426269531,0,1,objects,big,0,1,faces,A,female,EX,I,24,E12,96.783203125,0.0,0.0,0.0
0,0.0,0,24307,0.953125,0.166015625,3.0,7,37,5,968.874877929688,116.49129486084,0,1,objects,small,0,1,faces,A,female,EX,I,24,E12,96.783203125,0.0,0.0,0.0
0,0.0,0,24312,2.005859375,0.171875,6.0,15,81,10,1331.06298828125,921.415771484375,0,1,objects,big,0,1,faces,A,female,EX,I,24,E12,96.783203125,0.0,0.0,0.0
2,0.0,1,24319,3.560546875,0.134765625,10.0,4,32,17,827.545654296875,560.377563476562,0,1,objects,big,0,1,faces,A,female,EX,I,24,E12,96.783203125,0.0,0.0,0.0
0,0.0,1,24755,1.330078125,0.119140625,4.0,11,48,6,1065.21533203125,342.155548095703,0,1,objects,small,0,1,faces,A,female,EX,F,38,E12,155.572265625,0.0,0.0,0.0
0,0.0,1,24759,2.466796875,0.158203125,7.0,3,7,10,538.277893066406,733.438232421875,0,1,objects,big,0,1,faces,A,female,EX,F,38,E12,155.572265625,0.0,0.0,0.0
0,1.0,0,24782,0.703125,0.14453125,2.0,5,28,4,857.823974609375,158.98974609375,0,1,objects,big,1,1,faces,P,female,VS,I,39,E12,159.771484375,1.0,1.0,1.0
0,1.0,0,24788,2.037109375,0.134765625,6.0,11,62,10,1183.21118164062,842.55908203125,0,1,objects,big,1,1,faces,P,female,VS,I,39,E12,159.771484375,1.0,1.0,1.0
0,1.0,0,24890,2.607421875,0.185546875,8.0,1,1,13,527.343811035156,109.819625854492,0,1,objects,big,1,1,faces,P,female,VS,I,42,E12,172.369140625,1.0,1.0,1.0
0,1.0,0,24916,2.30078125,0.115234375,7.0,7,38,10,957.2373046875,236.585952758789,0,1,objects,small,1,1,faces,P,female,VS,F,43,E12,176.568359375,1.0,1.0,1.0
0,0.0,0,24970,2.240234375,0.216796875,7.0,9,55,11,1154.99877929688,142.749526977539,0,1,objects,big,0,1,faces,A,male,EX,F,45,E12,184.966796875,0.0,0.0,0.0
0,0.0,0,24971,2.525390625,0.15234375,8.0,14,73,12,1361.10083007812,125.399887084961,0,1,objects,big,0,1,faces,A,male,EX,F,45,E12,184.966796875,0.0,0.0,0.0
0,0.0,0,25014,0.40625,0.267578125,1.0,3,12,2,653.051696777344,312.579650878906,0,1,objects,small,0,1,faces,A,male,EX,I,47,E12,193.365234375,0.0,0.0,0.0
0,0.0,1,25015,0.75,0.15234375,2.0,8,47,3,1070.28503417969,194.364227294922,0,1,objects,big,0,1,faces,A,male,EX,I,47,E12,193.365234375,0.0,0.0,0.0
0,1.0,0,25046,1.40625,0.1328125,3.0,6,36,8,838.085998535156,916.590270996094,0,1,objects,big,1,1,faces,P,male,VS,I,48,E12,197.564453125,1.0,1.0,1.0
0,0.0,1,25110,0.693359375,0.16796875,2.0,1,11,4,638.333435058594,201.276214599609,0,1,objects,small,0,1,faces,A,female,EX,F,51,E12,210.162109375,0.0,0.0,0.0
1,0.0,0,25284,0.2890625,0.208984375,1.0,6,30,2,842.237243652344,376.277160644531,0,1,objects,small,0,1,faces,A,female,EX,I,57,E12,235.357421875,0.0,0.0,0.0
2,0.0,0,25287,1.111328125,0.328125,2.0,6,30,5,821.033203125,336.815246582031,0,1,objects,small,0,1,faces,A,female,EX,I,57,E12,235.357421875,0.0,0.0,0.0
3,0.0,0,25290,2.177734375,0.126953125,4.0,6,30,8,901.795837402344,374.644409179688,0,1,objects,small,0,1,faces,A,female,EX,I,57,E12,235.357421875,0.0,0.0,0.0
1,0.0,0,25441,0.30859375,0.169921875,1.0,10,39,1,911.838623046875,343.682952880859,0,1,objects,small,0,1,faces,A,male,EX,I,62,E12,256.353515625,0.0,0.0,0.0
2,0.0,0,25446,1.4140625,0.2421875,4.0,10,39,6,927.910766601562,318.316467285156,0,1,objects,small,0,1,faces,A,male,EX,I,62,E12,256.353515625,0.0,0.0,0.0
1,0.0,0,25447,1.72265625,0.220703125,5.0,11,56,7,1128.36022949219,245.552551269531,0,1,objects,big,0,1,faces,A,male,EX,I,62,E12,256.353515625,0.0,0.0,0.0
3,0.0,0,25448,2.01171875,0.537109375,6.0,10,39,8,940.712890625,328.108825683594,0,1,objects,small,0,1,faces,A,male,EX,I,62,E12,256.353515625,0.0,0.0,0.0
2,0.0,1,25450,3.03125,0.14453125,8.0,11,56,10,1194.7412109375,233.419158935547,0,1,objects,big,0,1,faces,A,male,EX,I,62,E12,256.353515625,0.0,0.0,0.0
0,0.0,0,25452,3.52734375,0.287109375,9.0,13,65,12,1251.71704101562,229.504089355469,0,1,objects,big,0,1,faces,A,male,EX,I,62,E12,256.353515625,0.0,0.0,0.0
0,0.0,1,25555,0.548828125,0.185546875,1.0,6,37,2,911.921630859375,125.588272094727,0,1,objects,small,0,1,objects,A,small,EX,O,66,E12,273.150390625,0.0,0.0,0.0
0,0.0,0,25562,2.287109375,0.353515625,4.0,5,31,9,855.745666503906,416.076568603516,0,1,objects,small,0,1,objects,A,small,EX,O,66,E12,273.150390625,0.0,0.0,0.0
0,0.0,0,25565,3.033203125,0.548828125,5.0,3,15,12,649.828735351562,628.307678222656,0,1,objects,big,0,1,objects,A,small,EX,O,66,E12,273.150390625,0.0,0.0,0.0
1,0.0,1,25704,1.23828125,0.48046875,2.0,8,33,3,869.020385742188,621.132751464844,0,1,objects,small,0,1,faces,A,male,EX,F,71,E12,294.146484375,0.0,0.0,0.0
2,0.0,0,25708,3.09375,0.107421875,3.0,8,33,7,868.665649414062,608.427978515625,0,1,objects,small,0,1,faces,A,male,EX,F,71,E12,294.146484375,0.0,0.0,0.0
0,0.0,0,25709,3.263671875,0.390625,4.0,10,51,8,1059.22082519531,687.548278808594,0,1,objects,big,0,1,faces,A,male,EX,F,71,E12,294.146484375,0.0,0.0,0.0
0,0.0,0,25710,3.68359375,0.58203125,5.0,11,52,9,1063.55419921875,700.287780761719,0,1,objects,small,0,1,faces,A,male,EX,F,71,E12,294.146484375,0.0,0.0,0.0
0,0.0,0,26117,0.21875,0.138671875,1.0,5,22,1,738.332214355469,425.825775146484,0,1,objects,big,0,1,faces,A,female,EX,F,78,E12,323.541015625,0.0,0.0,0.0
0,0.0,1,26280,0.71875,0.173828125,2.0,15,77,3,1334.30920410156,496.022857666016,0,1,objects,small,0,1,objects,A,small,EX,O,84,E12,348.736328125,0.0,0.0,0.0
0,0.0,1,26372,2.705078125,0.109375,3.0,11,53,8,1067.13623046875,804.92041015625,0,1,objects,big,0,1,faces,A,male,EX,F,87,E12,361.333984375,0.0,0.0,0.0
0,1.0,0,26626,1.80078125,0.166015625,6.0,5,43,9,965.388122558594,783.475158691406,0,1,objects,big,1,1,faces,P,female,VS,I,96,E12,399.126953125,1.0,1.0,1.0
0,1.0,0,26696,1.009765625,0.1015625,3.0,11,73,6,1330.80480957031,111.191352844238,0,1,objects,big,1,1,faces,P,male,VS,F,98,E12,407.525390625,1.0,1.0,1.0
0,0.0,0,26731,0.34375,0.2109375,1.0,8,48,2,1015.43865966797,339.009490966797,0,1,objects,small,0,1,faces,A,female,EX,F,99,E12,411.724609375,0.0,0.0,0.0
0,0.0,0,26733,0.78125,0.216796875,2.0,1,4,4,522.561706542969,402.534790039062,0,1,objects,big,0,1,faces,A,female,EX,F,99,E12,411.724609375,0.0,0.0,0.0
1,0.0,1,26736,1.908203125,0.408203125,4.0,5,40,7,948.69970703125,412.751678466797,0,1,objects,small,0,1,faces,A,female,EX,F,99,E12,411.724609375,0.0,0.0,0.0
0,0.0,0,26738,2.578125,0.12890625,5.0,6,41,9,950.335754394531,503.439147949219,0,1,objects,small,0,1,faces,A,female,EX,F,99,E12,411.724609375,0.0,0.0,0.0
2,0.0,0,26739,3.23828125,0.32421875,6.0,5,40,10,947.538208007812,425.494873046875,0,1,objects,small,0,1,faces,A,female,EX,F,99,E12,411.724609375,0.0,0.0,0.0
0,1.0,1,26763,0.271484375,0.115234375,1.0,6,40,2,1000.62573242188,484.361999511719,0,1,objects,big,1,1,faces,P,male,VS,F,100,E12,415.923828125,1.0,1.0,1.0
0,0.0,0,26804,2.275390625,0.66015625,4.0,5,41,8,948.398498535156,516.568908691406,0,1,objects,big,0,1,faces,A,female,EX,I,101,E12,420.123046875,0.0,0.0,0.0
0,0.0,0,26805,2.98828125,0.357421875,5.0,7,51,9,1066.89868164062,622.54296875,0,1,objects,big,0,1,faces,A,female,EX,I,101,E12,420.123046875,0.0,0.0,0.0
0,0.0,1,27150,1.265625,0.54296875,1.0,4,21,2,732.746643066406,308.0849609375,0,1,objects,small,0,1,faces,A,male,EX,F,112,E12,466.314453125,0.0,0.0,0.0
0,0.0,0,27152,2.38671875,0.28125,2.0,5,30,4,825.281433105469,296.61083984375,0,1,objects,small,0,1,faces,A,male,EX,F,112,E12,466.314453125,0.0,0.0,0.0
0,0.0,0,27153,2.71875,0.5703125,3.0,6,40,5,945.700012207031,395.304504394531,0,1,objects,big,0,1,faces,A,male,EX,F,112,E12,466.314453125,0.0,0.0,0.0
0,0.0,0,27177,0.25,0.123046875,1.0,6,51,1,1040.03527832031,658.13818359375,0,1,objects,small,0,1,faces,A,male,EX,I,113,E12,470.513671875,0.0,0.0,0.0
0,0.0,0,27181,1.1640625,0.22265625,3.0,11,65,5,1265.19750976562,236.961944580078,0,1,objects,big,0,1,faces,A,male,EX,I,113,E12,470.513671875,0.0,0.0,0.0
0,0.0,0,27445,0.2265625,0.103515625,1.0,6,34,1,843.744995117188,701.375427246094,0,1,objects,big,0,1,objects,A,small,EX,O,120,E12,499.908203125,0.0,0.0,0.0
0,0.0,0,27449,1.0625,0.126953125,4.0,14,66,5,1278.32153320312,320.373077392578,0,1,objects,small,0,1,objects,A,small,EX,O,120,E12,499.908203125,0.0,0.0,0.0
0,0.0,1,27450,1.23046875,0.232421875,5.0,15,75,6,1353.74719238281,339.453948974609,0,1,objects,small,0,1,objects,A,small,EX,O,120,E12,499.908203125,0.0,0.0,0.0
0,0.0,0,27510,0.60546875,0.15625,2.0,1,10,3,685.806213378906,168.30256652832,0,1,objects,big,0,1,faces,A,female,EX,F,122,E12,508.306640625,0.0,0.0,0.0
0,1.0,0,27607,0.4140625,0.171875,1.0,9,50,2,1009.74780273438,501.400573730469,0,1,objects,small,1,1,faces,P,female,VS,F,125,E12,520.904296875,1.0,1.0,1.0
0,1.0,0,27608,0.662109375,0.15234375,2.0,6,23,3,750.207580566406,524.042358398438,0,1,objects,big,1,1,faces,P,female,VS,F,125,E12,520.904296875,1.0,1.0,1.0
0,1.0,0,27609,0.869140625,0.12890625,3.0,3,15,4,665.4091796875,674.067138671875,0,1,objects,small,1,1,faces,P,female,VS,F,125,E12,520.904296875,1.0,1.0,1.0
0,1.0,0,27675,1.701171875,0.1640625,6.0,1,3,8,563.546569824219,382.540466308594,0,1,objects,small,1,1,faces,P,female,VS,F,128,E12,533.501953125,1.0,1.0,1.0
0,0.0,0,27811,2.0,0.6953125,4.0,11,60,9,1163.27612304688,638.187072753906,0,1,objects,big,0,1,faces,A,male,EX,F,133,E12,554.498046875,0.0,0.0,0.0
0,1.0,0,27872,0.326171875,0.119140625,1.0,6,39,1,922.500183105469,325.034393310547,0,1,objects,big,1,1,faces,P,male,VS,F,135,E12,562.896484375,1.0,1.0,1.0
0,0.0,0,27949,0.4765625,0.119140625,1.0,4,19,2,730.328430175781,190.316345214844,0,1,objects,small,0,1,faces,A,female,EX,I,138,E12,575.494140625,0.0,0.0,0.0
1,0.0,0,27953,1.251953125,0.224609375,4.0,8,39,6,985.182800292969,316.163177490234,0,1,objects,small,0,1,faces,A,female,EX,I,138,E12,575.494140625,0.0,0.0,0.0
0,0.0,0,27956,1.986328125,0.1796875,6.0,11,59,9,1186.06323242188,520.187622070312,0,1,objects,big,0,1,faces,A,female,EX,I,138,E12,575.494140625,0.0,0.0,0.0
2,0.0,0,27963,3.75,0.115234375,10.0,8,39,16,986.523193359375,368.280426025391,0,1,objects,small,0,1,faces,A,female,EX,I,138,E12,575.494140625,0.0,0.0,0.0
0,0.0,0,27982,0.4296875,0.107421875,1.0,5,31,3,862.831909179688,402.909271240234,0,1,objects,small,0,1,objects,A,small,EX,O,139,E12,579.693359375,0.0,0.0,0.0
0,0.0,1,27991,2.25,0.130859375,6.0,2,7,12,577.23046875,693.651977539062,0,1,objects,big,0,1,objects,A,small,EX,O,139,E12,579.693359375,0.0,0.0,0.0
0,1.0,0,28537,2.4609375,0.154296875,7.0,13,58,12,1157.6123046875,394.192657470703,0,1,objects,big,1,1,faces,P,female,VS,I,151,E12,630.083984375,1.0,1.0,1.0
1,0.0,0,28578,0.861328125,0.17578125,2.0,4,26,4,733.839416503906,820.304870605469,0,1,objects,small,0,1,faces,A,male,EX,F,153,E12,638.482421875,0.0,0.0,0.0
2,0.0,1,28588,3.30078125,0.1328125,8.0,4,26,14,719.406372070312,829.35107421875,0,1,objects,small,0,1,faces,A,male,EX,F,153,E12,638.482421875,0.0,0.0,0.0
0,0.0,0,28606,0.7109375,0.123046875,3.0,10,47,3,1101.86975097656,231.173706054688,0,1,objects,big,0,1,faces,A,female,EX,F,154,E12,642.681640625,0.0,0.0,0.0
0,0.0,0,29313,1.0859375,0.11328125,2.0,13,67,6,1213.265625,472.118225097656,0,1,objects,big,0,1,faces,A,female,EX,I,168,E12,701.470703125,0.0,0.0,0.0
0,0.0,0,29314,1.255859375,0.10546875,3.0,10,59,7,1176.05090332031,517.010498046875,0,1,objects,small,0,1,faces,A,female,EX,I,168,E12,701.470703125,0.0,0.0,0.0
1,0.0,1,29406,1.5859375,0.24609375,1.0,4,31,7,861.305114746094,439.791778564453,0,1,objects,small,0,1,faces,A,male,EX,F,170,E12,709.869140625,0.0,0.0,0.0
2,0.0,1,29409,2.119140625,0.1796875,2.0,4,31,10,869.783142089844,451.253387451172,0,1,objects,small,0,1,faces,A,male,EX,F,170,E12,709.869140625,0.0,0.0,0.0
3,0.0,1,29417,3.384765625,0.154296875,3.0,4,31,18,847.716247558594,461.971282958984,0,1,objects,small,0,1,faces,A,male,EX,F,170,E12,709.869140625,0.0,0.0,0.0
0,0.0,0,29904,1.453125,0.23046875,1.0,5,15,6,650.487426757812,666.21484375,0,1,objects,big,0,1,faces,A,male,EX,I,187,E12,781.255859375,0.0,0.0,0.0
0,0.0,0,30153,0.228515625,0.130859375,1.0,5,40,1,1010.29327392578,484.617370605469,0,1,objects,small,0,1,faces,A,male,EX,I,197,E12,823.248046875,0.0,0.0,0.0
0,0.0,1,30155,0.59765625,0.1328125,2.0,2,19,3,778.766967773438,156.270034790039,0,1,objects,small,0,1,faces,A,male,EX,I,197,E12,823.248046875,0.0,0.0,0.0
0,0.0,1,30162,2.193359375,0.125,7.0,6,47,10,1079.814453125,225.044235229492,0,1,objects,big,0,1,faces,A,male,EX,I,197,E12,823.248046875,0.0,0.0,0.0
0,1.0,0,30210,1.337890625,0.1875,3.0,1,2,7,602.614807128906,212.445510864258,0,1,objects,small,1,1,faces,P,male,VS,I,199,E12,831.646484375,1.0,1.0,1.0
0,1.0,0,30211,1.623046875,0.263671875,4.0,14,65,8,1255.62426757812,232.691513061523,0,1,objects,big,1,1,faces,P,male,VS,I,199,E12,831.646484375,1.0,1.0,1.0
0,1.0,0,30213,2.15625,0.126953125,5.0,12,45,10,940.306640625,907.762329101562,0,1,objects,big,1,1,faces,P,male,VS,I,199,E12,831.646484375,1.0,1.0,1.0
0,0.0,0,30228,0.265625,0.220703125,1.0,10,49,1,1078.541015625,488.087646484375,0,1,objects,big,0,1,faces,A,female,EX,I,200,E12,835.845703125,0.0,0.0,0.0
0,0.0,0,30256,3.298828125,0.189453125,4.0,5,21,8,748.956726074219,321.6552734375,0,1,objects,small,0,1,faces,A,female,EX,F,201,E12,840.044921875,0.0,0.0,0.0
0,1.0,0,30303,1.142578125,0.13671875,4.0,14,70,6,1251.22229003906,707.733947753906,0,1,objects,small,1,1,faces,P,female,VS,F,203,E12,848.443359375,1.0,1.0,1.0
0,0.0,0,30640,0.259765625,0.12109375,1.0,8,39,2,986.355041503906,352.354064941406,0,1,objects,small,0,1,objects,A,big,EX,O,213,E12,890.435546875,0.0,0.0,0.0
0,0.0,0,24846,1.14453125,0.228515625,2.0,9,38,6,943.135681152344,271.312774658203,0,1,objects,small,0,1,faces,A,male,EX,F,5,E14,16.998046875,0.0,0.0,0.0
0,0.0,1,24847,1.443359375,0.12109375,3.0,13,69,7,1250.5673828125,593.582275390625,0,1,objects,small,0,1,faces,A,male,EX,F,5,E14,16.998046875,0.0,0.0,0.0
0,0.0,1,24852,2.43359375,0.103515625,6.0,2,13,12,657.965454101562,483.088012695312,0,1,objects,small,0,1,faces,A,male,EX,F,5,E14,16.998046875,0.0,0.0,0.0
0,0.0,0,24988,2.837890625,0.197265625,6.0,12,68,12,1242.5224609375,575.065307617188,0,1,objects,big,0,1,faces,A,male,EX,I,9,E14,33.794921875,0.0,0.0,0.0
0,0.0,0,24992,3.763671875,0.189453125,8.0,10,62,16,1172.06323242188,859.941833496094,0,1,objects,small,0,1,faces,A,male,EX,I,9,E14,33.794921875,0.0,0.0,0.0
0,1.0,0,25310,0.7578125,0.109375,2.0,7,45,3,997.30517578125,964.295227050781,0,1,objects,big,1,1,faces,P,female,VS,F,19,E14,75.787109375,1.0,1.0,1.0
1,1.0,0,25583,0.625,0.154296875,1.0,14,75,3,1328.6220703125,322.940948486328,0,1,objects,big,1,1,faces,P,male,VS,I,29,E14,117.779296875,1.0,1.0,1.0
0,0.0,0,25834,0.654296875,0.4140625,2.0,9,47,5,1034.9716796875,215.648849487305,0,1,objects,big,0,1,objects,A,small,EX,O,37,E14,151.373046875,0.0,0.0,0.0
0,0.0,1,25839,2.11328125,0.103515625,5.0,5,24,10,726.018798828125,669.328430175781,0,1,objects,small,0,1,objects,A,small,EX,O,37,E14,151.373046875,0.0,0.0,0.0
1,0.0,0,25841,3.05078125,0.12890625,6.0,11,62,12,1132.27770996094,812.853820800781,0,1,objects,big,0,1,objects,A,small,EX,O,37,E14,151.373046875,0.0,0.0,0.0
2,0.0,0,25844,3.66015625,0.18359375,7.0,11,62,15,1210.39367675781,807.521789550781,0,1,objects,big,0,1,objects,A,small,EX,O,37,E14,151.373046875,0.0,0.0,0.0
0,0.0,0,25872,1.35546875,0.26171875,2.0,11,48,5,1096.2158203125,329.5087890625,0,1,objects,small,0,1,faces,A,female,EX,F,38,E14,155.572265625,0.0,0.0,0.0
0,0.0,0,25876,3.3671875,0.50390625,5.0,15,77,9,1375.26831054688,528.253173828125,0,1,objects,small,0,1,faces,A,female,EX,F,38,E14,155.572265625,0.0,0.0,0.0
0,0.0,0,25937,3.73828125,0.25390625,4.0,8,40,9,947.021362304688,434.521942138672,0,1,objects,big,0,1,objects,A,big,EX,O,40,E14,163.970703125,0.0,0.0,0.0
0,1.0,0,25955,0.66796875,0.16015625,2.0,10,49,4,1058.85290527344,427.890014648438,0,1,objects,small,1,1,faces,P,female,VS,F,41,E14,168.169921875,1.0,1.0,1.0
0,1.0,1,25956,0.873046875,0.15234375,3.0,5,19,5,729.469177246094,182.781280517578,0,1,objects,small,1,1,faces,P,female,VS,F,41,E14,168.169921875,1.0,1.0,1.0
0,0.0,0,26078,1.86328125,0.12109375,3.0,10,58,7,1156.68505859375,438.834930419922,0,1,objects,small,0,1,faces,A,male,EX,F,45,E14,184.966796875,0.0,0.0,0.0
0,0.0,0,26079,2.548828125,0.39453125,4.0,14,73,8,1383.10534667969,130.779067993164,0,1,objects,big,0,1,faces,A,male,EX,F,45,E14,184.966796875,0.0,0.0,0.0
0,0.0,0,26081,3.142578125,0.302734375,5.0,9,55,10,1146.5517578125,104.873710632324,0,1,objects,big,0,1,faces,A,male,EX,F,45,E14,184.966796875,0.0,0.0,0.0
1,0.0,1,26139,0.400390625,0.1015625,1.0,5,31,2,883.415893554688,413.602172851562,0,1,objects,small,0,1,faces,A,male,EX,I,47,E14,193.365234375,0.0,0.0,0.0
2,0.0,0,26147,3.060546875,0.375,4.0,5,31,10,860.366760253906,424.344848632812,0,1,objects,small,0,1,faces,A,male,EX,I,47,E14,193.365234375,0.0,0.0,0.0
0,1.0,0,26208,0.673828125,0.15625,2.0,15,76,3,1364.07543945312,405.252655029297,0,1,objects,big,1,1,faces,P,male,VS,F,49,E14,201.763671875,1.0,1.0,1.0
0,0.0,0,26242,0.642578125,0.19921875,2.0,1,11,3,652.649291992188,283.689788818359,0,1,objects,small,0,1,faces,A,female,EX,F,51,E14,210.162109375,0.0,0.0,0.0
0,0.0,0,26244,1.27734375,0.1640625,3.0,7,44,5,951.681518554688,799.427551269531,0,1,objects,big,0,1,faces,A,female,EX,F,51,E14,210.162109375,0.0,0.0,0.0
1,0.0,0,26562,0.283203125,0.1953125,1.0,10,39,2,937.362121582031,376.192077636719,0,1,objects,small,0,1,faces,A,male,EX,I,62,E14,256.353515625,0.0,0.0,0.0
0,0.0,0,26568,1.6328125,0.169921875,4.0,13,65,8,1249.79431152344,269.194213867188,0,1,objects,big,0,1,faces,A,male,EX,I,62,E14,256.353515625,0.0,0.0,0.0
2,0.0,0,26576,3.892578125,0.4375,11.0,10,39,16,912.758728027344,348.93896484375,0,1,objects,small,0,1,faces,A,male,EX,I,62,E14,256.353515625,0.0,0.0,0.0
0,1.0,0,26627,0.21875,0.1875,1.0,4,23,1,752.972900390625,556.589294433594,0,1,objects,big,1,1,faces,P,male,VS,F,64,E14,264.751953125,1.0,1.0,1.0
0,0.0,0,26687,0.443359375,0.162109375,1.0,8,52,2,1101.77746582031,744.934875488281,0,1,objects,big,0,1,objects,A,small,EX,O,66,E14,273.150390625,0.0,0.0,0.0
0,0.0,0,26689,1.48046875,0.4921875,2.0,5,31,4,833.568786621094,430.449371337891,0,1,objects,small,0,1,objects,A,small,EX,O,66,E14,273.150390625,0.0,0.0,0.0
0,0.0,1,26692,2.46484375,0.15234375,4.0,6,37,7,916.407043457031,151.120300292969,0,1,objects,small,0,1,objects,A,small,EX,O,66,E14,273.150390625,0.0,0.0,0.0
0,0.0,0,26697,3.8515625,0.39453125,7.0,11,59,12,1147.11901855469,539.952880859375,0,1,objects,small,0,1,objects,A,small,EX,O,66,E14,273.150390625,0.0,0.0,0.0
0,1.0,0,26764,0.384765625,0.12109375,1.0,13,50,2,1051.8310546875,526.938415527344,0,1,objects,big,1,1,faces,P,female,VS,I,68,E14,281.548828125,1.0,1.0,1.0
0,1.0,0,26948,1.8203125,0.123046875,3.0,2,14,12,656.005737304688,537.751892089844,0,1,objects,small,1,1,faces,P,male,VS,I,72,E14,298.345703125,1.0,1.0,1.0
0,0.0,0,27479,0.26171875,0.115234375,1.0,5,22,1,722.436584472656,436.048309326172,0,1,objects,big,0,1,faces,A,female,EX,F,78,E14,323.541015625,0.0,0.0,0.0
0,0.0,0,27489,3.0078125,0.1875,7.0,10,50,11,1051.80554199219,503.71435546875,0,1,objects,small,0,1,faces,A,female,EX,F,78,E14,323.541015625,0.0,0.0,0.0
0,0.0,1,27490,3.2578125,0.107421875,8.0,6,33,12,821.711791992188,675.691711425781,0,1,objects,small,0,1,faces,A,female,EX,F,78,E14,323.541015625,0.0,0.0,0.0
