refix,pretarget,multifix,urevent,tonset,dur_added,rank,first_rank,stposrel,stposabs,n,x,y,istarget,isdistractor,distractor_cat,ditractor_atr,trial_targetseen,trial_correct,trial_cat,trial_resp,trial_atr,trial_type,trial_cattype,trial_number,trial_subject,trial_bgn_latency,NTF_NTO
0,1.0,0,23231,1.0390625,0.138671875,2.0,1.0,8,47,5,1057.07434082031,247.931503295898,0,1,faces,male,1,1,objects,P,big,VS,O,2,E01,4.400390625,1
0,1.0,1,23232,1.240234375,0.119140625,3.0,1.0,13,66,6,1257.83056640625,296.270446777344,0,1,objects,small,1,1,objects,P,big,VS,O,2,E01,4.400390625,0
0,1.0,0,23236,1.978515625,0.126953125,5.0,0.0,6,42,10,946.085388183594,658.045654296875,0,1,faces,female,1,1,objects,P,big,VS,O,2,E01,4.400390625,1
0,1.0,0,23277,0.6484375,0.26953125,2.0,1.0,9,55,3,1180.07849121094,184.82373046875,0,1,faces,male,1,1,objects,P,small,VS,O,4,E01,12.798828125,1
0,1.0,0,23278,0.9375,0.125,3.0,1.0,10,56,4,1159.45556640625,191.059768676758,0,1,objects,small,1,1,objects,P,small,VS,O,4,E01,12.798828125,0
0,1.0,1,23279,1.109375,0.162109375,4.0,1.0,8,47,5,1093.4130859375,274.922119140625,0,1,objects,big,1,1,objects,P,small,VS,O,4,E01,12.798828125,0
0,1.0,1,23324,0.705078125,0.201171875,2.0,1.0,6,29,3,860.457824707031,246.168701171875,0,1,faces,male,1,1,faces,P,male,VS,I,6,E01,21.197265625,1
0,1.0,0,23451,0.650390625,0.208984375,2.0,1.0,8,39,3,970.197814941406,349.411865234375,0,1,faces,female,1,1,faces,P,female,VS,I,11,E01,42.193359375,1
0,1.0,0,23454,2.546875,0.22265625,4.0,1.0,2,15,6,651.507019042969,624.505432128906,0,1,faces,female,1,1,faces,P,female,VS,I,11,E01,42.193359375,1
0,1.0,0,23501,0.494140625,0.23828125,2.0,1.0,7,36,2,836.276062011719,914.621887207031,0,1,faces,female,1,1,faces,P,female,VS,I,13,E01,50.591796875,1
0,1.0,0,23502,0.791015625,0.21875,3.0,1.0,10,45,3,975.994323730469,924.290161132812,0,1,faces,male,1,1,faces,P,female,VS,I,13,E01,50.591796875,1
0,1.0,0,23504,1.1640625,0.232421875,4.0,1.0,14,70,5,1257.38354492188,733.79736328125,0,1,faces,male,1,1,faces,P,female,VS,I,13,E01,50.591796875,1
0,1.0,1,23505,1.470703125,0.125,5.0,0.0,9,41,6,991.379638671875,574.542663574219,0,1,faces,male,1,1,faces,P,female,VS,I,13,E01,50.591796875,1
0,1.0,0,23507,1.748046875,0.205078125,6.0,0.0,6,31,8,823.977783203125,453.493743896484,0,1,faces,male,1,1,faces,P,female,VS,I,13,E01,50.591796875,1
0,1.0,0,23508,1.9921875,0.154296875,7.0,0.0,5,22,9,745.563171386719,443.23046875,0,1,faces,male,1,1,faces,P,female,VS,I,13,E01,50.591796875,1
0,1.0,0,23583,0.53125,0.130859375,2.0,1.0,5,19,2,727.278015136719,161.494171142578,0,1,objects,big,1,1,faces,P,female,VS,F,16,E01,63.189453125,0
0,1.0,0,23584,0.751953125,0.185546875,3.0,1.0,9,42,3,918.923583984375,620.752685546875,0,1,faces,male,1,1,faces,P,female,VS,F,16,E01,63.189453125,1
0,1.0,0,23587,1.453125,0.138671875,5.0,0.0,15,78,6,1372.40673828125,629.021423339844,0,1,faces,male,1,1,faces,P,female,VS,F,16,E01,63.189453125,1
0,1.0,0,23631,0.9140625,0.232421875,2.0,1.0,14,65,5,1306.125,260.96142578125,0,1,faces,female,1,1,faces,P,female,VS,F,18,E01,71.587890625,1
0,1.0,0,23632,1.21484375,0.1953125,3.0,1.0,10,48,6,1050.69494628906,333.514739990234,0,1,faces,female,1,1,faces,P,female,VS,F,18,E01,71.587890625,1
0,1.0,0,23633,1.478515625,0.212890625,4.0,1.0,9,41,7,983.602722167969,521.846862792969,0,1,faces,male,1,1,faces,P,female,VS,F,18,E01,71.587890625,1
0,1.0,0,23634,1.7578125,0.1484375,5.0,0.0,6,24,8,803.429565429688,608.787231445312,0,1,objects,big,1,1,faces,P,female,VS,F,18,E01,71.587890625,0
0,1.0,1,23636,2.025390625,0.203125,6.0,0.0,2,14,10,656.049682617188,494.143188476562,0,1,faces,female,1,1,faces,P,female,VS,F,18,E01,71.587890625,1
0,1.0,0,23638,2.421875,0.154296875,7.0,0.0,7,26,12,743.507019042969,868.391235351562,0,1,faces,female,1,1,faces,P,female,VS,F,18,E01,71.587890625,1
0,1.0,0,23705,0.537109375,0.240234375,2.0,1.0,4,25,2,753.032287597656,731.374877929688,0,1,faces,female,1,1,objects,P,small,VS,O,21,E01,84.185546875,1
0,1.0,0,23706,0.82421875,0.119140625,3.0,1.0,3,24,3,734.439514160156,640.049865722656,0,1,faces,male,1,1,objects,P,small,VS,O,21,E01,84.185546875,1
0,1.0,0,23707,1.01953125,0.12890625,4.0,1.0,15,79,4,1324.09484863281,695.42529296875,0,1,faces,male,1,1,objects,P,small,VS,O,21,E01,84.185546875,1
0,1.0,0,23709,1.453125,0.134765625,5.0,0.0,9,40,6,950.002746582031,426.230041503906,0,1,objects,small,1,1,objects,P,small,VS,O,21,E01,84.185546875,0
1,1.0,1,23807,0.814453125,0.119140625,2.0,1.0,6,47,4,1090.47058105469,240.108535766602,0,1,faces,male,1,1,faces,P,female,VS,F,25,E01,100.982421875,1
0,1.0,0,23811,1.470703125,0.15625,4.0,1.0,12,68,8,1275.54919433594,581.028076171875,0,1,faces,female,1,1,faces,P,female,VS,F,25,E01,100.982421875,1
1,1.0,0,23815,2.234375,0.259765625,6.0,0.0,8,53,12,1073.88806152344,852.162353515625,0,1,faces,male,1,1,faces,P,female,VS,F,25,E01,100.982421875,1
0,1.0,0,23816,2.55859375,0.197265625,7.0,0.0,13,71,13,1257.73193359375,851.126403808594,0,1,faces,female,1,1,faces,P,female,VS,F,25,E01,100.982421875,1
0,1.0,0,23818,2.95703125,0.123046875,9.0,0.0,7,52,15,1057.81115722656,770.4609375,0,1,objects,big,1,1,faces,P,female,VS,F,25,E01,100.982421875,0
0,1.0,1,23933,0.451171875,0.138671875,2.0,1.0,6,37,2,927.962280273438,176.381805419922,0,1,faces,female,1,1,faces,P,male,VS,I,29,E01,117.779296875,1
0,1.0,0,23935,0.763671875,0.173828125,3.0,1.0,9,55,4,1199.55114746094,180.002426147461,0,1,faces,male,1,1,faces,P,male,VS,I,29,E01,117.779296875,1
0,1.0,0,23936,0.998046875,0.1953125,4.0,1.0,13,74,5,1336.04064941406,276.612548828125,0,1,faces,male,1,1,faces,P,male,VS,I,29,E01,117.779296875,1
0,1.0,0,23937,1.2421875,0.125,5.0,0.0,14,75,6,1392.00866699219,378.409729003906,0,1,objects,big,1,1,faces,P,male,VS,I,29,E01,117.779296875,0
0,1.0,0,23938,1.443359375,0.107421875,6.0,0.0,8,48,7,1059.40600585938,374.208923339844,0,1,faces,female,1,1,faces,P,male,VS,I,29,E01,117.779296875,1
0,1.0,0,23939,1.6171875,0.19921875,7.0,0.0,3,22,8,791.37841796875,451.220367431641,0,1,objects,small,1,1,faces,P,male,VS,I,29,E01,117.779296875,0
0,1.0,0,23940,1.861328125,0.138671875,8.0,0.0,4,32,9,879.199462890625,544.513061523438,0,1,objects,small,1,1,faces,P,male,VS,I,29,E01,117.779296875,0
0,1.0,0,23941,2.05859375,0.189453125,9.0,0.0,5,34,10,812.257751464844,723.930358886719,0,1,faces,male,1,1,faces,P,male,VS,I,29,E01,117.779296875,1
0,1.0,0,23942,2.306640625,0.26171875,10.0,0.0,2,16,11,651.463256835938,748.50146484375,0,1,faces,male,1,1,faces,P,male,VS,I,29,E01,117.779296875,1
0,1.0,0,23943,2.640625,0.236328125,11.0,0.0,7,42,12,959.244750976562,639.0673828125,0,1,faces,female,1,1,faces,P,male,VS,I,29,E01,117.779296875,1
0,1.0,0,23944,2.9453125,0.13671875,12.0,0.0,12,70,13,1261.6552734375,735.941467285156,0,1,objects,big,1,1,faces,P,male,VS,I,29,E01,117.779296875,0
0,1.0,0,23945,3.134765625,0.140625,13.0,0.0,11,68,14,1262.39538574219,555.264465332031,0,1,objects,big,1,1,faces,P,male,VS,I,29,E01,117.779296875,0
0,1.0,0,24012,0.658203125,0.205078125,2.0,1.0,11,65,4,1310.43896484375,281.281890869141,0,1,objects,small,1,1,objects,P,small,VS,O,32,E01,130.376953125,0
0,1.0,0,24242,1.35546875,0.109375,3.0,1.0,14,69,6,1283.59777832031,629.944213867188,0,1,faces,female,1,1,faces,P,female,VS,F,41,E01,168.169921875,1
0,1.0,0,24265,1.375,0.158203125,3.0,1.0,13,74,6,1339.47509765625,217.675369262695,0,1,faces,female,1,1,faces,P,female,VS,I,42,E01,172.369140625,1
0,1.0,0,24300,0.611328125,0.107421875,2.0,1.0,14,75,2,1353.90686035156,304.319000244141,0,1,faces,male,1,1,objects,P,big,VS,O,44,E01,180.767578125,1
0,1.0,0,24301,0.736328125,0.1015625,3.0,1.0,13,74,3,1371.01342773438,283.442687988281,0,1,faces,female,1,1,objects,P,big,VS,O,44,E01,180.767578125,1
0,1.0,0,24303,1.11328125,0.162109375,4.0,1.0,4,22,5,747.702209472656,447.280364990234,0,1,objects,small,1,1,objects,P,big,VS,O,44,E01,180.767578125,0
0,1.0,0,24427,1.107421875,0.501953125,2.0,1.0,6,24,3,759.810119628906,644.431945800781,0,1,faces,male,1,1,faces,P,male,VS,F,49,E01,201.763671875,1
0,1.0,1,24428,1.666015625,0.173828125,3.0,1.0,4,17,4,699.128967285156,862.157287597656,0,1,faces,female,1,1,faces,P,male,VS,F,49,E01,201.763671875,1
0,1.0,0,24431,2.205078125,0.1875,4.0,1.0,8,34,7,861.879821777344,733.322326660156,0,1,objects,big,1,1,faces,P,male,VS,F,49,E01,201.763671875,0
0,1.0,0,24432,2.462890625,0.26171875,5.0,0.0,11,60,8,1174.16564941406,592.690612792969,0,1,faces,female,1,1,faces,P,male,VS,F,49,E01,201.763671875,1
0,1.0,0,24500,0.69140625,0.12890625,2.0,1.0,9,49,4,1088.83044433594,450.209747314453,0,1,faces,female,1,1,faces,P,female,VS,I,52,E01,214.361328125,1
0,1.0,0,24577,0.5390625,0.36328125,2.0,1.0,13,56,2,1177.07690429688,244.857757568359,0,1,objects,small,1,1,objects,P,small,VS,O,55,E01,226.958984375,0
0,1.0,0,24599,1.09765625,0.1875,2.0,1.0,10,58,3,1141.20251464844,479.136810302734,0,1,faces,male,1,1,objects,P,big,VS,O,56,E01,231.158203125,1
0,1.0,0,24600,1.353515625,0.224609375,3.0,1.0,7,42,4,999.66650390625,628.956787109375,0,1,objects,small,1,1,objects,P,big,VS,O,56,E01,231.158203125,0
0,1.0,0,24601,1.625,0.171875,4.0,1.0,11,60,5,1178.12170410156,627.736511230469,0,1,objects,big,1,1,objects,P,big,VS,O,56,E01,231.158203125,0
0,1.0,0,24602,1.873046875,0.267578125,5.0,0.0,2,15,6,624.904479980469,657.756713867188,0,1,objects,small,1,1,objects,P,big,VS,O,56,E01,231.158203125,0
0,1.0,0,24603,2.23046875,0.22265625,6.0,0.0,8,52,7,1099.73718261719,760.257995605469,0,1,objects,small,1,1,objects,P,big,VS,O,56,E01,231.158203125,0
0,1.0,0,24604,2.515625,0.177734375,7.0,0.0,13,71,8,1286.58728027344,838.879699707031,0,1,faces,female,1,1,objects,P,big,VS,O,56,E01,231.158203125,1
0,1.0,0,24806,1.083984375,0.251953125,2.0,1.0,11,55,5,1188.27416992188,174.363555908203,0,1,faces,female,1,1,faces,P,male,VS,F,64,E01,264.751953125,1
0,1.0,0,24807,1.37890625,0.126953125,3.0,1.0,13,64,6,1282.58129882812,179.22395324707,0,1,faces,female,1,1,faces,P,male,VS,F,64,E01,264.751953125,1
0,1.0,1,24885,0.99609375,0.16796875,2.0,1.0,12,66,3,1306.92932128906,333.741424560547,0,1,faces,male,1,1,faces,P,male,VS,F,67,E01,277.349609375,1
0,1.0,0,24887,1.38671875,0.23046875,3.0,1.0,3,23,5,737.35498046875,516.80224609375,0,1,objects,small,1,1,faces,P,male,VS,F,67,E01,277.349609375,0
0,1.0,0,24888,1.673828125,0.1328125,4.0,1.0,7,50,6,1032.78125,525.287109375,0,1,objects,big,1,1,faces,P,male,VS,F,67,E01,277.349609375,0
0,1.0,1,24889,1.908203125,0.119140625,5.0,0.0,1,2,7,575.541442871094,289.832977294922,0,1,faces,female,1,1,faces,P,male,VS,F,67,E01,277.349609375,1
0,1.0,0,24892,2.587890625,0.291015625,6.0,0.0,8,52,10,1058.1748046875,712.161926269531,0,1,faces,male,1,1,faces,P,male,VS,F,67,E01,277.349609375,1
0,1.0,0,24893,2.951171875,0.287109375,7.0,0.0,4,25,11,783.363586425781,732.798156738281,0,1,faces,female,1,1,faces,P,male,VS,F,67,E01,277.349609375,1
0,1.0,0,25029,1.25,0.185546875,2.0,1.0,5,31,5,907.6494140625,449.379577636719,0,1,faces,female,1,1,faces,P,male,VS,I,72,E01,298.345703125,1
0,1.0,0,25321,0.47265625,0.26171875,2.0,1.0,3,10,3,644.225769042969,174.7392578125,0,1,faces,male,1,1,faces,P,female,VS,F,76,E01,315.142578125,1
0,1.0,0,25322,0.845703125,0.2421875,3.0,1.0,13,73,4,1336.42272949219,188.365142822266,0,1,faces,male,1,1,faces,P,female,VS,F,76,E01,315.142578125,1
0,1.0,0,25324,1.462890625,0.24609375,5.0,0.0,4,12,6,644.184814453125,345.332092285156,0,1,objects,small,1,1,faces,P,female,VS,F,76,E01,315.142578125,0
0,1.0,0,25325,1.767578125,0.2890625,6.0,0.0,2,5,7,547.527954101562,553.799011230469,0,1,faces,male,1,1,faces,P,female,VS,F,76,E01,315.142578125,1
0,1.0,0,25326,2.107421875,0.2109375,7.0,0.0,6,23,8,742.960693359375,555.971252441406,0,1,faces,male,1,1,faces,P,female,VS,F,76,E01,315.142578125,1
0,1.0,0,25327,2.361328125,0.255859375,8.0,0.0,8,33,9,855.112670898438,630.753295898438,0,1,faces,female,1,1,faces,P,female,VS,F,76,E01,315.142578125,1
0,1.0,0,25397,0.634765625,0.259765625,2.0,1.0,10,57,2,1168.78063964844,339.539581298828,0,1,faces,female,1,1,objects,P,small,VS,O,79,E01,327.740234375,1
0,1.0,0,25398,0.939453125,0.291015625,3.0,1.0,9,49,3,1110.05383300781,417.940612792969,0,1,faces,male,1,1,objects,P,small,VS,O,79,E01,327.740234375,1
0,1.0,0,25400,1.544921875,0.12109375,5.0,0.0,1,8,5,582.695068359375,811.261291503906,0,1,faces,male,1,1,objects,P,small,VS,O,79,E01,327.740234375,1
0,1.0,1,25421,1.27734375,0.150390625,2.0,1.0,11,56,5,1132.85607910156,233.787033081055,0,1,faces,male,1,1,objects,P,big,VS,O,80,E01,331.939453125,1
0,1.0,0,25562,0.642578125,0.181640625,2.0,1.0,7,28,3,837.283325195312,177.401565551758,0,1,faces,female,1,1,faces,P,female,VS,I,85,E01,352.935546875,1
0,1.0,0,25563,0.919921875,0.302734375,3.0,1.0,1,2,4,583.384399414062,238.555419921875,0,1,faces,female,1,1,faces,P,female,VS,I,85,E01,352.935546875,1
0,1.0,0,25739,0.576171875,0.251953125,2.0,1.0,12,65,4,1288.14086914062,274.851623535156,0,1,faces,female,1,1,faces,P,male,VS,F,91,E01,378.130859375,1
0,1.0,1,25882,1.001953125,0.115234375,2.0,1.0,7,48,3,1057.10620117188,290.988800048828,0,1,faces,female,1,1,faces,P,female,VS,I,96,E01,399.126953125,1
0,1.0,0,25884,1.55078125,0.185546875,3.0,1.0,10,58,5,1157.654296875,449.244750976562,0,1,faces,male,1,1,faces,P,female,VS,I,96,E01,399.126953125,1
0,1.0,0,25932,0.76953125,0.193359375,2.0,1.0,12,76,3,1385.90087890625,465.8408203125,0,1,faces,male,1,1,faces,P,male,VS,F,98,E01,407.525390625,1
0,1.0,0,25933,1.0625,0.16796875,3.0,1.0,2,10,4,680.783447265625,173.486480712891,0,1,faces,female,1,1,faces,P,male,VS,F,98,E01,407.525390625,1
0,1.0,0,25935,1.46484375,0.193359375,4.0,1.0,14,79,6,1394.15637207031,732.377746582031,0,1,faces,female,1,1,faces,P,male,VS,F,98,E01,407.525390625,1
0,1.0,0,25936,1.701171875,0.1953125,5.0,0.0,10,71,7,1309.2353515625,841.721435546875,0,1,faces,female,1,1,faces,P,male,VS,F,98,E01,407.525390625,1
0,1.0,0,26031,0.521484375,0.248046875,2.0,1.0,2,10,2,673.330871582031,169.098541259766,0,1,faces,male,1,1,faces,P,female,VS,I,102,E01,424.322265625,1
0,1.0,0,26032,0.8125,0.134765625,3.0,1.0,1,1,3,578.214111328125,154.82666015625,0,1,objects,big,1,1,faces,P,female,VS,I,102,E01,424.322265625,0
0,1.0,0,26033,0.9921875,0.28125,4.0,1.0,3,11,4,678.857177734375,258.474578857422,0,1,faces,female,1,1,faces,P,female,VS,I,102,E01,424.322265625,1
0,1.0,0,26034,1.318359375,0.275390625,5.0,0.0,5,21,5,803.272827148438,360.571228027344,0,1,objects,big,1,1,faces,P,female,VS,I,102,E01,424.322265625,0
0,1.0,0,26037,2.078125,0.18359375,6.0,0.0,13,61,8,1163.60632324219,741.0703125,0,1,objects,small,1,1,faces,P,female,VS,I,102,E01,424.322265625,0
0,1.0,0,26051,0.76171875,0.109375,2.0,1.0,13,75,3,1386.53735351562,306.834014892578,0,1,objects,big,1,1,objects,P,big,VS,O,103,E01,428.521484375,0
0,1.0,0,26052,0.900390625,0.216796875,3.0,1.0,12,74,4,1374.36694335938,278.625854492188,0,1,objects,small,1,1,objects,P,big,VS,O,103,E01,428.521484375,0
0,1.0,0,26053,1.171875,0.169921875,4.0,1.0,11,67,5,1229.59765625,419.624206542969,0,1,faces,female,1,1,objects,P,big,VS,O,103,E01,428.521484375,1
0,1.0,0,26054,1.384765625,0.25390625,5.0,0.0,7,49,6,1081.44702148438,442.461822509766,0,1,faces,female,1,1,objects,P,big,VS,O,103,E01,428.521484375,1
0,1.0,0,26158,0.478515625,0.26171875,2.0,1.0,7,41,2,972.236633300781,492.193206787109,0,1,objects,small,1,1,objects,P,big,VS,O,107,E01,445.318359375,0
1,1.0,0,26398,0.482421875,0.203125,2.0,1.0,2,2,2,566.635192871094,193.745788574219,0,1,objects,small,1,1,faces,P,female,VS,I,116,E01,483.111328125,0
0,1.0,0,26403,1.5234375,0.2734375,5.0,0.0,3,3,7,569.898620605469,329.630767822266,0,1,faces,male,1,1,faces,P,female,VS,I,116,E01,483.111328125,1
1,1.0,0,26406,2.21875,0.287109375,7.0,0.0,10,41,10,981.558044433594,539.688171386719,0,1,faces,male,1,1,faces,P,female,VS,I,116,E01,483.111328125,1
0,1.0,0,26428,0.654296875,0.212890625,2.0,1.0,1,1,4,564.562438964844,138.441635131836,0,1,objects,big,1,1,objects,P,small,VS,O,117,E01,487.310546875,0
0,1.0,0,26448,0.98828125,0.279296875,2.0,1.0,6,29,5,851.335693359375,225.770843505859,0,1,faces,female,1,1,faces,P,male,VS,I,118,E01,491.509765625,1
0,1.0,0,26449,1.3359375,0.21484375,3.0,1.0,1,2,6,573.022583007812,222.873153686523,0,1,faces,male,1,1,faces,P,male,VS,I,118,E01,491.509765625,1
0,1.0,0,26450,1.60546875,0.181640625,4.0,1.0,3,14,7,637.7646484375,502.627899169922,0,1,objects,small,1,1,faces,P,male,VS,I,118,E01,491.509765625,0
0,1.0,0,26451,1.8828125,0.248046875,5.0,0.0,11,50,8,1051.80993652344,522.511535644531,0,1,faces,female,1,1,faces,P,male,VS,I,118,E01,491.509765625,1
0,1.0,0,26470,1.1328125,0.236328125,2.0,1.0,12,58,4,1162.42626953125,428.826263427734,0,1,faces,male,1,1,objects,P,small,VS,O,119,E01,495.708984375,1
0,1.0,0,26471,1.431640625,0.345703125,3.0,1.0,14,77,5,1405.8720703125,534.388244628906,0,1,objects,small,1,1,objects,P,small,VS,O,119,E01,495.708984375,0
0,1.0,0,26473,2.091796875,0.130859375,4.0,1.0,8,24,7,719.328796386719,656.810424804688,0,1,faces,female,1,1,objects,P,small,VS,O,119,E01,495.708984375,1
0,1.0,0,26474,2.283203125,0.220703125,5.0,0.0,6,17,8,659.110107421875,831.48681640625,0,1,faces,male,1,1,objects,P,small,VS,O,119,E01,495.708984375,1
0,1.0,0,26524,1.369140625,0.25390625,2.0,1.0,3,22,7,782.97607421875,464.068481445312,0,1,faces,female,1,1,faces,P,male,VS,I,121,E01,504.107421875,1
0,1.0,0,26526,1.853515625,0.158203125,3.0,1.0,6,34,9,858.964965820312,731.640625,0,1,faces,male,1,1,faces,P,male,VS,I,121,E01,504.107421875,1
0,1.0,0,26527,2.052734375,0.150390625,4.0,1.0,8,43,10,956.240234375,740.650390625,0,1,faces,female,1,1,faces,P,male,VS,I,121,E01,504.107421875,1
0,1.0,0,26528,2.248046875,0.236328125,5.0,0.0,10,53,11,1050.80407714844,840.283386230469,0,1,objects,big,1,1,faces,P,male,VS,I,121,E01,504.107421875,0
0,1.0,1,26529,2.560546875,0.12890625,6.0,0.0,1,9,12,596.355407714844,949.222900390625,0,1,faces,male,1,1,faces,P,male,VS,I,121,E01,504.107421875,1
0,1.0,0,26531,2.86328125,0.154296875,7.0,0.0,4,27,14,711.604187011719,950.149841308594,0,1,faces,female,1,1,faces,P,male,VS,I,121,E01,504.107421875,1
0,1.0,1,26532,3.087890625,0.15625,8.0,0.0,12,63,15,1127.728515625,973.958129882812,0,1,objects,big,1,1,faces,P,male,VS,I,121,E01,504.107421875,0
0,1.0,0,26633,1.40625,0.185546875,2.0,1.0,13,64,6,1232.26782226562,188.073196411133,0,1,faces,male,1,1,faces,P,female,VS,F,125,E01,520.904296875,1
0,1.0,0,26719,1.216796875,0.1875,2.0,1.0,12,74,7,1371.41015625,276.987731933594,0,1,faces,male,1,1,faces,P,female,VS,F,128,E01,533.501953125,1
0,1.0,0,26720,1.447265625,0.29296875,3.0,1.0,13,75,8,1373.9375,360.9306640625,0,1,faces,male,1,1,faces,P,female,VS,F,128,E01,533.501953125,1
0,1.0,0,26721,1.783203125,0.109375,4.0,1.0,14,76,9,1394.30407714844,461.801177978516,0,1,faces,female,1,1,faces,P,female,VS,F,128,E01,533.501953125,1
0,1.0,0,26722,1.966796875,0.19921875,5.0,0.0,6,32,10,896.250671386719,571.627502441406,0,1,faces,male,1,1,faces,P,female,VS,F,128,E01,533.501953125,1
0,1.0,0,26724,2.353515625,0.162109375,6.0,0.0,1,3,12,571.526794433594,378.707763671875,0,1,objects,small,1,1,faces,P,female,VS,F,128,E01,533.501953125,0
0,1.0,0,26923,1.39453125,0.216796875,2.0,1.0,4,27,5,808.619506835938,891.692504882812,0,1,faces,male,1,1,objects,P,small,VS,O,136,E01,567.095703125,1
0,1.0,0,26925,1.99609375,0.150390625,3.0,1.0,12,69,7,1277.42578125,650.456665039062,0,1,faces,male,1,1,objects,P,small,VS,O,136,E01,567.095703125,1
0,1.0,0,26926,2.17578125,0.1640625,4.0,1.0,11,68,8,1280.84851074219,577.437438964844,0,1,objects,small,1,1,objects,P,small,VS,O,136,E01,567.095703125,0
0,1.0,0,26927,2.443359375,0.3125,5.0,0.0,10,56,9,1160.91186523438,276.955200195312,0,1,faces,female,1,1,objects,P,small,VS,O,136,E01,567.095703125,1
0,1.0,0,27137,0.470703125,0.185546875,2.0,1.0,8,56,2,1162.59167480469,223.639694213867,0,1,objects,small,1,1,objects,P,small,VS,O,144,E01,600.689453125,0
0,1.0,0,27386,1.267578125,0.31640625,2.0,1.0,12,55,6,1174.64147949219,156.243988037109,0,1,faces,female,1,1,faces,P,female,VS,F,147,E01,613.287109375,1
0,1.0,0,27389,2.041015625,0.150390625,3.0,1.0,5,20,9,798.002563476562,240.397491455078,0,1,faces,male,1,1,faces,P,female,VS,F,147,E01,613.287109375,1
0,1.0,0,27410,1.017578125,0.138671875,2.0,1.0,4,20,4,720.695861816406,194.350250244141,0,1,faces,male,1,1,faces,P,male,VS,F,148,E01,617.486328125,1
0,1.0,1,27411,1.185546875,0.177734375,3.0,1.0,3,11,5,676.152404785156,235.807952880859,0,1,faces,female,1,1,faces,P,male,VS,F,148,E01,617.486328125,1
0,1.0,0,27413,1.5546875,0.25390625,4.0,1.0,5,23,7,729.996887207031,511.102111816406,0,1,faces,male,1,1,faces,P,male,VS,F,148,E01,617.486328125,1
0,1.0,0,27414,1.869140625,0.212890625,5.0,0.0,6,42,8,956.059326171875,635.0419921875,0,1,objects,small,1,1,faces,P,male,VS,F,148,E01,617.486328125,0
0,1.0,0,27415,2.1328125,0.1796875,6.0,0.0,8,52,9,1065.44091796875,694.141296386719,0,1,faces,female,1,1,faces,P,male,VS,F,148,E01,617.486328125,1
0,1.0,0,27429,0.80078125,0.2734375,2.0,1.0,10,50,3,1086.927734375,511.585876464844,0,1,faces,female,1,1,objects,P,small,VS,O,149,E01,621.685546875,1
0,1.0,0,27430,1.111328125,0.224609375,3.0,1.0,9,42,4,933.024841308594,604.525634765625,0,1,objects,small,1,1,objects,P,small,VS,O,149,E01,621.685546875,0
0,1.0,1,27433,1.861328125,0.162109375,4.0,1.0,3,17,7,695.50732421875,849.925537109375,0,1,faces,female,1,1,objects,P,small,VS,O,149,E01,621.685546875,1
0,1.0,0,27492,1.033203125,0.119140625,2.0,1.0,6,38,5,936.087829589844,204.736633300781,0,1,objects,big,1,1,faces,P,female,VS,I,151,E01,630.083984375,0
0,1.0,0,27493,1.18359375,0.248046875,3.0,1.0,9,47,6,1068.72583007812,236.772567749023,0,1,faces,female,1,1,faces,P,female,VS,I,151,E01,630.083984375,1
0,1.0,0,27494,1.466796875,0.181640625,4.0,1.0,11,56,7,1149.46301269531,280.975219726562,0,1,faces,female,1,1,faces,P,female,VS,I,151,E01,630.083984375,1
0,1.0,0,27595,0.537109375,0.439453125,2.0,1.0,2,10,2,664.95849609375,158.272964477539,0,1,faces,female,1,1,faces,P,male,VS,F,155,E01,646.880859375,1
0,1.0,0,27597,1.375,0.234375,3.0,1.0,10,57,4,1153.73217773438,303.288635253906,0,1,faces,male,1,1,faces,P,male,VS,F,155,E01,646.880859375,1
0,1.0,0,27598,1.65625,0.150390625,4.0,1.0,12,75,5,1332.32995605469,344.997497558594,0,1,faces,male,1,1,faces,P,male,VS,F,155,E01,646.880859375,1
1,1.0,0,27620,0.609375,0.302734375,2.0,1.0,1,1,3,549.603149414062,168.327026367188,0,1,faces,male,1,1,faces,P,male,VS,F,156,E01,651.080078125,1
1,1.0,0,27621,0.9609375,0.111328125,3.0,1.0,2,2,4,524.502136230469,225.683090209961,0,1,faces,male,1,1,faces,P,male,VS,F,156,E01,651.080078125,1
0,1.0,0,27742,0.556640625,0.146484375,2.0,1.0,1,4,3,559.467529296875,436.854705810547,0,1,objects,small,1,1,faces,P,female,VS,I,161,E01,672.076171875,0
0,1.0,0,27745,1.3125,0.1953125,4.0,1.0,9,56,6,1145.92077636719,288.006683349609,0,1,faces,male,1,1,faces,P,female,VS,I,161,E01,672.076171875,1
0,1.0,0,27746,1.55078125,0.392578125,5.0,0.0,13,65,7,1274.11633300781,278.719818115234,0,1,faces,male,1,1,faces,P,female,VS,I,161,E01,672.076171875,1
0,1.0,0,27748,2.25,0.18359375,6.0,0.0,8,51,9,1075.38000488281,634.308349609375,0,1,faces,female,1,1,faces,P,female,VS,I,161,E01,672.076171875,1
0,1.0,0,27749,2.474609375,0.2265625,7.0,0.0,11,61,10,1161.76928710938,693.974609375,0,1,faces,male,1,1,faces,P,female,VS,I,161,E01,672.076171875,1
0,1.0,0,27961,0.439453125,0.169921875,2.0,1.0,8,38,2,933.937561035156,276.009582519531,0,1,faces,female,1,1,faces,P,female,VS,I,169,E01,705.669921875,1
0,1.0,1,27962,0.6796875,0.134765625,3.0,1.0,12,66,3,1259.06884765625,331.159759521484,0,1,faces,male,1,1,faces,P,female,VS,I,169,E01,705.669921875,1
0,1.0,0,27964,0.998046875,0.16796875,4.0,1.0,13,68,5,1273.81945800781,493.272155761719,0,1,objects,small,1,1,faces,P,female,VS,I,169,E01,705.669921875,0
0,1.0,1,27965,1.236328125,0.3203125,5.0,0.0,6,32,6,888.273254394531,547.81494140625,0,1,objects,small,1,1,faces,P,female,VS,I,169,E01,705.669921875,0
0,1.0,0,28008,0.98046875,0.146484375,2.0,1.0,13,58,5,1179.35400390625,406.53125,0,1,faces,male,1,1,faces,P,female,VS,F,171,E01,714.068359375,1
0,1.0,0,28009,1.193359375,0.1640625,3.0,1.0,15,75,6,1390.103515625,329.290496826172,0,1,faces,male,1,1,faces,P,female,VS,F,171,E01,714.068359375,1
0,1.0,0,28010,1.4453125,0.2578125,4.0,1.0,5,12,7,665.497009277344,329.170867919922,0,1,faces,female,1,1,faces,P,female,VS,F,171,E01,714.068359375,1
1,1.0,0,28011,1.74609375,0.150390625,5.0,0.0,7,22,8,745.978210449219,398.863403320312,0,1,faces,male,1,1,faces,P,female,VS,F,171,E01,714.068359375,1
0,1.0,1,28012,1.93359375,0.234375,6.0,0.0,1,3,9,547.236328125,342.453674316406,0,1,faces,female,1,1,faces,P,female,VS,F,171,E01,714.068359375,1
0,1.0,0,28015,2.673828125,0.185546875,8.0,0.0,11,51,12,1050.44958496094,688.195861816406,0,1,faces,female,1,1,faces,P,female,VS,F,171,E01,714.068359375,1
0,1.0,0,28017,3.119140625,0.1484375,10.0,0.0,6,17,14,618.914855957031,795.822814941406,0,1,faces,female,1,1,faces,P,female,VS,F,171,E01,714.068359375,1
0,1.0,0,28062,0.66796875,0.201171875,2.0,1.0,8,39,4,936.436218261719,300.084228515625,0,1,faces,female,1,1,faces,P,female,VS,F,173,E01,722.466796875,1
0,1.0,0,28064,1.265625,0.189453125,3.0,1.0,4,12,6,639.3564453125,329.394897460938,0,1,faces,female,1,1,faces,P,female,VS,F,173,E01,722.466796875,1
0,1.0,1,28066,1.765625,0.173828125,4.0,1.0,1,7,8,607.033142089844,729.627197265625,0,1,faces,female,1,1,faces,P,female,VS,F,173,E01,722.466796875,1
1,1.0,0,28068,2.283203125,0.15625,5.0,0.0,13,61,10,1133.29248046875,690.638000488281,0,1,faces,male,1,1,faces,P,female,VS,F,173,E01,722.466796875,1
0,1.0,0,28070,2.6953125,0.15234375,6.0,0.0,15,80,12,1386.58850097656,810.606079101562,0,1,faces,male,1,1,faces,P,female,VS,F,173,E01,722.466796875,1
0,1.0,0,28073,3.337890625,0.171875,8.0,0.0,14,72,15,1264.21984863281,920.883972167969,0,1,faces,female,1,1,faces,P,female,VS,F,173,E01,722.466796875,1
0,1.0,0,28074,3.578125,0.19140625,9.0,0.0,10,53,16,1068.90869140625,808.307861328125,0,1,faces,male,1,1,faces,P,female,VS,F,173,E01,722.466796875,1
0,1.0,0,28199,0.35546875,0.1640625,2.0,1.0,9,47,2,1030.10522460938,231.705703735352,0,1,faces,male,1,1,objects,P,small,VS,O,178,E01,743.462890625,1
0,1.0,1,28200,0.568359375,0.1953125,3.0,1.0,13,56,3,1144.14416503906,204.670562744141,0,1,faces,female,1,1,objects,P,small,VS,O,178,E01,743.462890625,1
0,1.0,0,28202,0.98046875,0.189453125,4.0,1.0,10,48,5,1018.43347167969,334.805236816406,0,1,faces,female,1,1,objects,P,small,VS,O,178,E01,743.462890625,1
0,1.0,0,28204,1.427734375,0.12109375,5.0,0.0,5,33,7,838.583129882812,631.052185058594,0,1,faces,female,1,1,objects,P,small,VS,O,178,E01,743.462890625,1
0,1.0,0,28205,1.611328125,0.12890625,6.0,0.0,11,52,8,1010.17034912109,723.722290039062,0,1,objects,big,1,1,objects,P,small,VS,O,178,E01,743.462890625,0
0,1.0,0,28206,1.8046875,0.17578125,7.0,0.0,6,35,9,820.063903808594,821.923706054688,0,1,objects,small,1,1,objects,P,small,VS,O,178,E01,743.462890625,0
0,1.0,0,28207,2.021484375,0.373046875,8.0,0.0,7,36,10,850.147338867188,925.976013183594,0,1,objects,big,1,1,objects,P,small,VS,O,178,E01,743.462890625,0
0,1.0,0,28258,0.646484375,0.119140625,2.0,1.0,10,47,3,1023.48382568359,244.006607055664,0,1,faces,female,1,1,faces,P,female,VS,I,180,E01,751.861328125,1
0,1.0,0,28260,1.0078125,0.166015625,3.0,1.0,2,3,5,581.009521484375,313.487060546875,0,1,objects,big,1,1,faces,P,female,VS,I,180,E01,751.861328125,0
0,1.0,0,28261,1.271484375,0.1484375,4.0,1.0,1,1,6,550.678283691406,165.758575439453,0,1,objects,small,1,1,faces,P,female,VS,I,180,E01,751.861328125,0
0,1.0,1,28263,1.6640625,0.1640625,5.0,0.0,3,5,8,539.5732421875,524.222473144531,0,1,faces,female,1,1,faces,P,female,VS,I,180,E01,751.861328125,1
0,1.0,1,28290,0.974609375,0.1796875,2.0,1.0,2,11,5,681.949157714844,209.730346679688,0,1,faces,male,1,1,faces,P,female,VS,I,181,E01,756.060546875,1
0,1.0,0,28292,1.373046875,0.2265625,3.0,1.0,7,23,7,736.933044433594,528.447143554688,0,1,faces,female,1,1,faces,P,female,VS,I,181,E01,756.060546875,1
0,1.0,0,28293,1.67578125,0.1484375,4.0,1.0,4,17,8,682.584045410156,821.918701171875,0,1,faces,male,1,1,faces,P,female,VS,I,181,E01,756.060546875,1
0,1.0,0,28425,0.716796875,0.216796875,2.0,1.0,9,47,3,1031.37170410156,247.351409912109,0,1,faces,male,1,1,faces,P,female,VS,F,186,E01,777.056640625,1
0,1.0,0,28426,1.00390625,0.224609375,3.0,1.0,15,74,4,1372.66320800781,274.915069580078,0,1,faces,female,1,1,faces,P,female,VS,F,186,E01,777.056640625,1
0,1.0,0,28502,0.921875,0.111328125,2.0,1.0,13,64,4,1232.05590820312,177.837448120117,0,1,faces,female,1,1,objects,P,big,VS,O,189,E01,789.654296875,1
0,1.0,0,28504,1.435546875,0.15234375,3.0,1.0,6,33,6,908.925903320312,672.710693359375,0,1,objects,small,1,1,objects,P,big,VS,O,189,E01,789.654296875,0
0,1.0,0,28505,1.662109375,0.201171875,4.0,1.0,10,53,7,1050.01611328125,837.261840820312,0,1,objects,small,1,1,objects,P,big,VS,O,189,E01,789.654296875,0
0,1.0,0,28558,0.8046875,0.251953125,2.0,1.0,12,56,4,1129.60119628906,236.872131347656,0,1,faces,male,1,1,faces,P,male,VS,I,191,E01,798.052734375,1
0,1.0,0,28560,1.2890625,0.20703125,3.0,1.0,14,65,6,1274.74938964844,271.731384277344,0,1,faces,female,1,1,faces,P,male,VS,I,191,E01,798.052734375,1
0,1.0,0,28610,1.19921875,0.216796875,2.0,1.0,6,41,6,936.750732421875,541.994873046875,0,1,faces,male,1,1,faces,P,female,VS,F,193,E01,806.451171875,1
0,1.0,0,28611,1.478515625,0.150390625,3.0,1.0,7,43,7,990.120361328125,720.790344238281,0,1,faces,male,1,1,faces,P,female,VS,F,193,E01,806.451171875,1
0,1.0,0,28612,1.666015625,0.126953125,4.0,1.0,10,52,8,1050.68432617188,724.771484375,0,1,faces,female,1,1,faces,P,female,VS,F,193,E01,806.451171875,1
0,1.0,0,28613,1.83984375,0.193359375,5.0,0.0,3,33,9,848.057373046875,626.3828125,0,1,faces,female,1,1,faces,P,female,VS,F,193,E01,806.451171875,1
0,1.0,0,28762,0.8046875,0.22265625,2.0,1.0,6,21,3,756.752380371094,357.982818603516,0,1,faces,male,1,1,faces,P,male,VS,I,199,E01,831.646484375,1
0,1.0,0,28763,1.072265625,0.345703125,3.0,1.0,9,31,4,829.095275878906,430.419830322266,0,1,faces,female,1,1,faces,P,male,VS,I,199,E01,831.646484375,1
0,1.0,0,28765,1.69140625,0.23046875,4.0,1.0,8,25,6,787.722229003906,755.7294921875,0,1,faces,female,1,1,faces,P,male,VS,I,199,E01,831.646484375,1
0,1.0,0,28766,1.986328125,0.29296875,5.0,0.0,10,36,7,841.811340332031,921.106750488281,0,1,faces,female,1,1,faces,P,male,VS,I,199,E01,831.646484375,1
0,1.0,0,28767,2.33203125,0.1484375,6.0,0.0,4,17,8,639.462280273438,856.79638671875,0,1,faces,female,1,1,faces,P,male,VS,I,199,E01,831.646484375,1
0,1.0,0,28830,0.60546875,0.185546875,2.0,1.0,8,38,2,977.811950683594,284.907867431641,0,1,faces,female,1,1,faces,P,female,VS,I,202,E01,844.244140625,1
0,1.0,0,28863,0.77734375,0.19921875,2.0,1.0,11,58,4,1174.701171875,454.959411621094,0,1,faces,female,1,1,faces,P,female,VS,F,203,E01,848.443359375,1
0,1.0,0,28864,1.021484375,0.189453125,3.0,1.0,12,68,5,1264.16247558594,548.990966796875,0,1,faces,female,1,1,faces,P,female,VS,F,203,E01,848.443359375,1
0,1.0,0,28866,1.494140625,0.138671875,5.0,0.0,14,70,7,1252.68798828125,744.369079589844,0,1,objects,small,1,1,faces,P,female,VS,F,203,E01,848.443359375,0
0,1.0,0,20681,2.705078125,0.126953125,2.0,1.0,8,37,5,963.116516113281,172.405670166016,0,1,faces,female,1,1,objects,P,small,VS,O,7,E03,25.396484375,1
0,1.0,1,20737,1.328125,0.181640625,2.0,1.0,13,68,7,1275.86474609375,544.43408203125,0,1,faces,female,1,1,faces,P,male,VS,F,9,E03,33.794921875,1
0,1.0,1,20740,1.7890625,0.130859375,3.0,1.0,12,66,10,1281.30236816406,336.554260253906,0,1,faces,male,1,1,faces,P,male,VS,F,9,E03,33.794921875,1
0,1.0,0,20741,1.986328125,0.2421875,4.0,1.0,14,69,11,1274.37976074219,643.816772460938,0,1,faces,male,1,1,faces,P,male,VS,F,9,E03,33.794921875,1
0,1.0,0,20743,2.42578125,0.2578125,5.0,0.0,9,54,13,1065.54467773438,928.484069824219,0,1,faces,male,1,1,faces,P,male,VS,F,9,E03,33.794921875,1
0,1.0,1,20746,3.08203125,0.109375,7.0,0.0,8,52,16,1011.94671630859,742.633483886719,0,1,faces,male,1,1,faces,P,male,VS,F,9,E03,33.794921875,1
1,1.0,0,20761,0.7421875,0.177734375,2.0,1.0,9,37,5,957.55908203125,149.768417358398,0,1,faces,male,1,1,faces,P,female,VS,I,10,E03,37.994140625,1
0,1.0,0,20762,0.9765625,0.216796875,3.0,1.0,8,29,6,876.882446289062,243.882568359375,0,1,faces,male,1,1,faces,P,female,VS,I,10,E03,37.994140625,1
0,1.0,0,20830,1.849609375,0.18359375,4.0,1.0,8,46,10,1065.79455566406,152.003936767578,0,1,faces,female,1,1,faces,P,male,VS,I,12,E03,46.392578125,1
0,1.0,0,20832,2.30859375,0.177734375,5.0,0.0,14,79,12,1369.42346191406,731.149353027344,0,1,faces,female,1,1,faces,P,male,VS,I,12,E03,46.392578125,1
0,1.0,0,20877,0.578125,0.154296875,2.0,1.0,12,64,3,1266.65966796875,141.985900878906,0,1,faces,female,1,1,faces,P,male,VS,I,14,E03,54.791015625,1
0,1.0,0,20878,0.83984375,0.189453125,3.0,1.0,5,31,4,895.831115722656,432.4287109375,0,1,faces,female,1,1,faces,P,male,VS,I,14,E03,54.791015625,1
0,1.0,0,20879,1.0703125,0.146484375,4.0,1.0,8,49,5,1063.42248535156,435.182983398438,0,1,faces,female,1,1,faces,P,male,VS,I,14,E03,54.791015625,1
0,1.0,0,20880,1.259765625,0.150390625,5.0,0.0,13,66,6,1295.13940429688,368.942260742188,0,1,faces,female,1,1,faces,P,male,VS,I,14,E03,54.791015625,1
0,1.0,0,20885,2.037109375,0.193359375,6.0,0.0,9,54,11,1071.21057128906,938.291015625,0,1,faces,female,1,1,faces,P,male,VS,I,14,E03,54.791015625,1
0,1.0,1,20886,2.3046875,0.103515625,7.0,0.0,3,17,12,649.312561035156,882.624328613281,0,1,objects,big,1,1,faces,P,male,VS,I,14,E03,54.791015625,0
0,1.0,0,20983,0.37109375,0.1171875,2.0,1.0,9,48,2,1041.80651855469,378.630340576172,0,1,objects,small,1,1,faces,P,female,VS,I,18,E03,71.587890625,0
0,1.0,0,21004,0.666015625,0.1171875,3.0,1.0,11,48,5,1022.24224853516,366.381530761719,0,1,faces,female,1,1,objects,P,big,VS,O,19,E03,75.787109375,1
0,1.0,1,21053,0.626953125,0.16796875,2.0,1.0,8,23,3,768.259094238281,560.891174316406,0,1,faces,female,1,1,faces,P,male,VS,F,21,E03,84.185546875,1
0,1.0,0,21054,0.865234375,0.208984375,3.0,1.0,6,19,4,752.686828613281,166.544250488281,0,1,faces,female,1,1,faces,P,male,VS,F,21,E03,84.185546875,1
0,1.0,1,21083,0.43359375,0.119140625,2.0,1.0,5,24,2,799.49462890625,658.635864257812,0,1,objects,small,1,1,objects,P,big,VS,O,22,E03,88.384765625,0
0,1.0,1,21085,0.865234375,0.171875,3.0,1.0,6,27,4,802.689086914062,960.330505371094,0,1,faces,male,1,1,objects,P,big,VS,O,22,E03,88.384765625,1
0,1.0,1,21088,1.33984375,0.138671875,4.0,1.0,2,15,7,629.753234863281,660.459350585938,0,1,objects,small,1,1,objects,P,big,VS,O,22,E03,88.384765625,0
0,1.0,1,21150,0.521484375,0.2265625,2.0,1.0,6,20,4,750.244750976562,214.214996337891,0,1,objects,big,1,1,objects,P,small,VS,O,24,E03,96.783203125,0
1,1.0,0,21786,1.404296875,0.103515625,3.0,1.0,11,54,9,1058.65393066406,900.482666015625,0,1,faces,male,1,1,faces,P,female,VS,I,44,E03,180.767578125,1
1,1.0,0,21815,0.501953125,0.12890625,2.0,1.0,5,22,2,755.962890625,474.938140869141,0,1,objects,small,1,1,objects,P,big,VS,O,45,E03,184.966796875,0
1,1.0,0,21937,0.994140625,0.234375,2.0,1.0,9,45,5,922.797912597656,985.522277832031,0,1,faces,female,1,1,objects,P,big,VS,O,49,E03,201.763671875,1
0,1.0,0,21938,1.31640625,0.11328125,3.0,1.0,15,75,6,1316.09411621094,367.796752929688,0,1,faces,female,1,1,objects,P,big,VS,O,49,E03,201.763671875,1
0,1.0,0,21941,1.837890625,0.134765625,4.0,1.0,3,19,9,759.191955566406,176.818313598633,0,1,faces,male,1,1,objects,P,big,VS,O,49,E03,201.763671875,1
1,1.0,0,22245,0.447265625,0.130859375,2.0,1.0,1,1,3,566.805419921875,173.240234375,0,1,faces,female,1,1,faces,P,female,VS,I,58,E03,239.556640625,1
0,1.0,0,22250,1.171875,0.111328125,4.0,1.0,4,5,8,535.728454589844,552.155334472656,0,1,faces,female,1,1,faces,P,female,VS,I,58,E03,239.556640625,1
0,1.0,0,22255,2.01953125,0.119140625,6.0,0.0,10,41,13,968.495849609375,544.085571289062,0,1,faces,male,1,1,faces,P,female,VS,I,58,E03,239.556640625,1
0,1.0,0,22789,0.56640625,0.162109375,2.0,1.0,12,60,3,1170.57507324219,645.573547363281,0,1,faces,female,1,1,faces,P,female,VS,F,68,E03,281.548828125,1
0,1.0,0,22931,0.423828125,0.279296875,2.0,1.0,4,19,2,768.93212890625,166.605667114258,0,1,objects,big,1,1,objects,P,big,VS,O,73,E03,302.544921875,0
0,1.0,1,22932,0.7734375,0.146484375,3.0,1.0,6,31,3,871.867614746094,479.911254882812,0,1,objects,big,1,1,objects,P,big,VS,O,73,E03,302.544921875,0
0,1.0,0,22934,1.1171875,0.103515625,4.0,1.0,3,14,5,693.416870117188,581.78369140625,0,1,faces,male,1,1,objects,P,big,VS,O,73,E03,302.544921875,1
0,1.0,1,23079,0.478515625,0.146484375,2.0,1.0,8,47,2,1023.10052490234,283.736968994141,0,1,faces,male,1,1,faces,P,male,VS,F,77,E03,319.341796875,1
0,1.0,0,23083,1.072265625,0.11328125,4.0,1.0,12,73,6,1326.26184082031,182.560440063477,0,1,faces,female,1,1,faces,P,male,VS,F,77,E03,319.341796875,1
1,1.0,0,23232,0.40625,0.203125,2.0,1.0,7,33,2,864.226928710938,666.099182128906,0,1,faces,male,1,1,faces,P,female,VS,I,82,E03,340.337890625,1
0,1.0,1,23236,1.1484375,0.115234375,4.0,1.0,1,2,6,576.543701171875,275.657409667969,0,1,faces,female,1,1,faces,P,female,VS,I,82,E03,340.337890625,1
0,1.0,1,23238,1.3828125,0.15625,5.0,0.0,3,12,8,649.006225585938,342.271331787109,0,1,faces,male,1,1,faces,P,female,VS,I,82,E03,340.337890625,1
0,1.0,1,23240,1.7109375,0.125,6.0,0.0,11,55,10,1126.50659179688,156.512329101562,0,1,objects,big,1,1,faces,P,female,VS,I,82,E03,340.337890625,0
0,1.0,1,23243,2.177734375,0.115234375,7.0,0.0,13,63,13,1192.54931640625,981.377319335938,0,1,faces,female,1,1,faces,P,female,VS,I,82,E03,340.337890625,1
0,1.0,0,23245,2.5625,0.18359375,8.0,0.0,4,18,15,652.0205078125,920.382080078125,0,1,objects,small,1,1,faces,P,female,VS,I,82,E03,340.337890625,0
0,1.0,0,23443,1.443359375,0.322265625,2.0,1.0,11,68,7,1291.59777832031,502.932586669922,0,1,faces,male,1,1,faces,P,male,VS,F,88,E03,365.533203125,1
1,1.0,0,23444,1.798828125,0.21484375,3.0,1.0,13,77,8,1381.21508789062,512.187377929688,0,1,faces,male,1,1,faces,P,male,VS,F,88,E03,365.533203125,1
0,1.0,0,23445,2.083984375,0.22265625,4.0,1.0,8,51,9,1071.49401855469,615.349792480469,0,1,faces,female,1,1,faces,P,male,VS,F,88,E03,365.533203125,1
0,1.0,0,23446,2.376953125,0.1484375,5.0,0.0,2,17,10,689.26416015625,819.176574707031,0,1,objects,small,1,1,faces,P,male,VS,F,88,E03,365.533203125,0
0,1.0,1,23472,0.970703125,0.134765625,2.0,1.0,5,21,5,756.33154296875,327.853576660156,0,1,faces,male,1,1,objects,P,big,VS,O,89,E03,369.732421875,1
0,1.0,0,23476,1.54296875,0.125,3.0,1.0,2,8,9,553.854736328125,801.961547851562,0,1,faces,female,1,1,objects,P,big,VS,O,89,E03,369.732421875,1
1,1.0,0,23478,2.080078125,0.126953125,5.0,0.0,14,62,11,1156.33239746094,860.065307617188,0,1,objects,big,1,1,objects,P,big,VS,O,89,E03,369.732421875,0
0,1.0,0,23615,1.55859375,0.1640625,2.0,1.0,6,24,5,754.911499023438,634.394226074219,0,1,faces,male,1,1,objects,P,small,VS,O,93,E03,386.529296875,1
0,1.0,0,23652,1.578125,0.154296875,2.0,1.0,7,39,10,982.424560546875,376.728240966797,0,1,objects,small,1,1,faces,P,male,VS,F,94,E03,390.728515625,0
0,1.0,1,23653,1.80078125,0.1484375,3.0,1.0,9,50,11,1070.43566894531,553.626525878906,0,1,faces,male,1,1,faces,P,male,VS,F,94,E03,390.728515625,1
0,1.0,0,23655,2.1953125,0.16796875,4.0,1.0,6,33,13,838.799072265625,627.310424804688,0,1,objects,small,1,1,faces,P,male,VS,F,94,E03,390.728515625,0
0,1.0,0,23656,2.392578125,0.2265625,5.0,0.0,5,24,14,760.036071777344,634.557861328125,0,1,faces,male,1,1,faces,P,male,VS,F,94,E03,390.728515625,1
0,1.0,0,23657,2.6875,0.173828125,6.0,0.0,4,17,15,673.848266601562,836.792419433594,0,1,faces,male,1,1,faces,P,male,VS,F,94,E03,390.728515625,1
1,1.0,0,23823,0.48828125,0.189453125,2.0,1.0,4,24,3,764.666564941406,645.266662597656,0,1,faces,male,1,1,faces,P,female,VS,F,99,E03,411.724609375,1
1,1.0,1,23827,1.10546875,0.13671875,3.0,1.0,8,47,7,1051.65466308594,204.488296508789,0,1,faces,female,1,1,faces,P,female,VS,F,99,E03,411.724609375,1
0,1.0,0,23831,1.6796875,0.193359375,5.0,0.0,13,69,11,1246.29272460938,657.458557128906,0,1,faces,male,1,1,faces,P,female,VS,F,99,E03,411.724609375,1
0,1.0,1,24066,0.701171875,0.189453125,2.0,1.0,9,56,4,1169.89147949219,207.547302246094,0,1,faces,female,1,1,objects,P,small,VS,O,107,E03,445.318359375,1
0,1.0,0,24067,0.951171875,0.185546875,3.0,1.0,8,48,5,1091.40759277344,376.471466064453,0,1,objects,big,1,1,objects,P,small,VS,O,107,E03,445.318359375,0
0,1.0,0,24068,1.19921875,0.1640625,4.0,1.0,11,59,6,1192.16857910156,583.135070800781,0,1,objects,small,1,1,objects,P,small,VS,O,107,E03,445.318359375,0
0,1.0,0,24069,1.396484375,0.12109375,5.0,0.0,12,60,7,1169.70971679688,654.523376464844,0,1,objects,big,1,1,objects,P,small,VS,O,107,E03,445.318359375,0
0,1.0,0,24223,0.814453125,0.10546875,2.0,1.0,10,46,4,1052.67724609375,169.964233398438,0,1,objects,big,1,1,faces,P,female,VS,F,113,E03,470.513671875,0
0,1.0,1,24224,1.03125,0.115234375,3.0,1.0,15,75,5,1367.00341796875,350.114135742188,0,1,faces,male,1,1,faces,P,female,VS,F,113,E03,470.513671875,1
0,1.0,0,24226,1.29296875,0.1796875,4.0,1.0,13,58,7,1196.15466308594,463.753570556641,0,1,faces,male,1,1,faces,P,female,VS,F,113,E03,470.513671875,1
0,1.0,0,24227,1.533203125,0.197265625,5.0,0.0,11,51,8,1092.89392089844,637.439025878906,0,1,faces,female,1,1,faces,P,female,VS,F,113,E03,470.513671875,1
0,1.0,0,24229,1.947265625,0.1875,7.0,0.0,6,17,10,704.330871582031,844.447570800781,0,1,faces,female,1,1,faces,P,female,VS,F,113,E03,470.513671875,1
0,1.0,0,24248,0.6171875,0.12890625,2.0,1.0,6,22,3,781.7412109375,444.195983886719,0,1,objects,big,1,1,objects,P,big,VS,O,114,E03,474.712890625,0
1,1.0,0,24272,0.69921875,0.12890625,2.0,1.0,4,12,3,669.653442382812,297.676025390625,0,1,faces,female,1,1,faces,P,female,VS,F,115,E03,478.912109375,1
0,1.0,0,24273,0.853515625,0.138671875,3.0,1.0,3,11,4,678.121948242188,252.418380737305,0,1,faces,male,1,1,faces,P,female,VS,F,115,E03,478.912109375,1
0,1.0,1,24275,1.287109375,0.1328125,5.0,0.0,12,56,6,1154.88610839844,256.110107421875,0,1,faces,male,1,1,faces,P,female,VS,F,115,E03,478.912109375,1
0,1.0,1,24277,1.677734375,0.123046875,6.0,0.0,7,33,8,905.696166992188,675.270568847656,0,1,objects,small,1,1,faces,P,female,VS,F,115,E03,478.912109375,0
0,1.0,0,24279,2.029296875,0.107421875,7.0,0.0,6,16,10,618.939758300781,733.016906738281,0,1,objects,small,1,1,faces,P,female,VS,F,115,E03,478.912109375,0
0,1.0,0,24280,2.18359375,0.12890625,8.0,0.0,1,7,11,571.770385742188,735.353454589844,0,1,faces,female,1,1,faces,P,female,VS,F,115,E03,478.912109375,1
0,1.0,1,24425,0.638671875,0.10546875,2.0,1.0,1,13,3,672.013244628906,440.663330078125,0,1,objects,big,1,1,objects,P,small,VS,O,120,E03,499.908203125,0
1,1.0,0,24477,0.5234375,0.154296875,2.0,1.0,10,47,3,1059.52209472656,248.563583374023,0,1,faces,female,1,1,faces,P,female,VS,I,122,E03,508.306640625,1
1,1.0,1,24478,0.744140625,0.12109375,3.0,1.0,5,22,4,791.839599609375,412.458251953125,0,1,faces,male,1,1,faces,P,female,VS,I,122,E03,508.306640625,1
0,1.0,0,24483,1.8046875,0.181640625,6.0,0.0,3,5,9,587.480102539062,582.110229492188,0,1,faces,female,1,1,faces,P,female,VS,I,122,E03,508.306640625,1
0,1.0,1,24485,2.28515625,0.13671875,8.0,0.0,1,1,11,585.082824707031,189.537750244141,0,1,objects,small,1,1,faces,P,female,VS,I,122,E03,508.306640625,0
0,1.0,0,24508,0.560546875,0.140625,2.0,1.0,10,46,4,1073.54125976562,115.556694030762,0,1,faces,female,1,1,faces,P,female,VS,I,123,E03,512.505859375,1
0,1.0,0,24509,0.76953125,0.123046875,3.0,1.0,6,20,5,744.4677734375,206.257522583008,0,1,objects,small,1,1,faces,P,female,VS,I,123,E03,512.505859375,0
0,1.0,1,24516,1.671875,0.103515625,4.0,1.0,7,23,12,744.179382324219,584.887878417969,0,1,faces,female,1,1,faces,P,female,VS,I,123,E03,512.505859375,1
1,1.0,0,24518,2.00390625,0.138671875,5.0,0.0,9,44,14,928.555114746094,838.203735351562,0,1,faces,female,1,1,faces,P,female,VS,I,123,E03,512.505859375,1
0,1.0,1,25309,0.521484375,0.146484375,2.0,1.0,6,21,4,793.583984375,375.091613769531,0,1,faces,male,1,1,faces,P,male,VS,I,141,E03,588.091796875,1
0,1.0,0,25311,0.791015625,0.189453125,3.0,1.0,5,19,6,757.414367675781,141.495025634766,0,1,faces,male,1,1,faces,P,male,VS,I,141,E03,588.091796875,1
0,1.0,1,25312,1.0625,0.265625,4.0,1.0,9,31,7,873.644104003906,442.902496337891,0,1,faces,female,1,1,faces,P,male,VS,I,141,E03,588.091796875,1
0,1.0,0,25315,1.740234375,0.197265625,5.0,0.0,8,25,10,800.037719726562,749.271362304688,0,1,faces,female,1,1,faces,P,male,VS,I,141,E03,588.091796875,1
0,1.0,1,25316,2.0,0.119140625,6.0,0.0,12,45,11,950.493347167969,938.412780761719,0,1,objects,big,1,1,faces,P,male,VS,I,141,E03,588.091796875,0
0,1.0,0,25425,0.435546875,0.154296875,2.0,1.0,7,40,3,977.628173828125,476.9296875,0,1,faces,male,1,1,faces,P,female,VS,F,145,E03,604.888671875,1
0,1.0,1,25427,0.74609375,0.25390625,3.0,1.0,6,21,5,771.774536132812,368.538635253906,0,1,faces,female,1,1,faces,P,female,VS,F,145,E03,604.888671875,1
0,1.0,0,25428,1.0390625,0.248046875,4.0,1.0,5,12,6,669.772827148438,373.0595703125,0,1,faces,male,1,1,faces,P,female,VS,F,145,E03,604.888671875,1
0,1.0,1,25429,1.37890625,0.103515625,5.0,0.0,11,58,7,1137.90795898438,474.987426757812,0,1,faces,female,1,1,faces,P,female,VS,F,145,E03,604.888671875,1
0,1.0,0,25951,0.689453125,0.169921875,2.0,1.0,10,55,3,1124.91687011719,187.939697265625,0,1,faces,male,1,1,faces,P,female,VS,F,165,E03,688.873046875,1
0,1.0,1,25953,1.2109375,0.177734375,3.0,1.0,2,3,5,576.517150878906,377.361145019531,0,1,faces,female,1,1,faces,P,female,VS,F,165,E03,688.873046875,1
0,1.0,0,26307,0.544921875,0.177734375,2.0,1.0,6,37,4,918.591430664062,186.269058227539,0,1,faces,male,1,1,objects,P,big,VS,O,176,E03,735.064453125,1
0,1.0,0,26473,0.865234375,0.150390625,2.0,1.0,13,74,4,1327.5439453125,275.242248535156,0,1,faces,female,1,1,faces,P,male,VS,I,182,E03,760.259765625,1
0,1.0,0,26478,2.34375,0.12890625,4.0,1.0,3,15,9,706.440734863281,643.099792480469,0,1,faces,male,1,1,faces,P,male,VS,I,182,E03,760.259765625,1
0,1.0,1,26479,2.541015625,0.125,5.0,0.0,7,43,10,1005.14880371094,773.449829101562,0,1,faces,male,1,1,faces,P,male,VS,I,182,E03,760.259765625,1
0,1.0,1,26481,2.89453125,0.140625,6.0,0.0,5,32,12,883.041442871094,554.326110839844,0,1,faces,female,1,1,faces,P,male,VS,I,182,E03,760.259765625,1
0,1.0,0,26483,3.291015625,0.123046875,7.0,0.0,10,59,14,1195.99072265625,559.858520507812,0,1,faces,female,1,1,faces,P,male,VS,I,182,E03,760.259765625,1
0,1.0,0,26484,3.455078125,0.2578125,8.0,0.0,14,77,15,1333.21508789062,552.4013671875,0,1,faces,male,1,1,faces,P,male,VS,I,182,E03,760.259765625,1
0,1.0,0,26507,0.5390625,0.318359375,2.0,1.0,6,37,4,948.92578125,167.054885864258,0,1,faces,female,1,1,faces,P,female,VS,I,183,E03,764.458984375,1
0,1.0,1,26511,1.4375,0.146484375,4.0,1.0,11,59,8,1151.27526855469,548.445495605469,0,1,faces,female,1,1,faces,P,female,VS,I,183,E03,764.458984375,1
0,1.0,0,26539,0.80859375,0.2109375,2.0,1.0,5,10,6,636.533142089844,129.797393798828,0,1,faces,male,1,1,faces,P,male,VS,I,184,E03,768.658203125,1
0,1.0,0,26730,0.6640625,0.185546875,2.0,1.0,2,12,4,663.408203125,332.726837158203,0,1,faces,female,1,1,faces,P,female,VS,I,189,E03,789.654296875,1
0,1.0,1,26732,0.98828125,0.1015625,3.0,1.0,8,38,6,910.753295898438,233.688690185547,0,1,faces,female,1,1,faces,P,female,VS,I,189,E03,789.654296875,1
0,1.0,0,26831,0.546875,0.2109375,2.0,1.0,6,46,3,1050.67565917969,139.240936279297,0,1,faces,male,1,1,objects,P,small,VS,O,192,E03,802.251953125,1
0,1.0,0,26832,0.822265625,0.19140625,3.0,1.0,11,65,4,1275.78491210938,272.456268310547,0,1,faces,male,1,1,objects,P,small,VS,O,192,E03,802.251953125,1
1,1.0,0,27031,0.697265625,0.138671875,2.0,1.0,8,28,5,852.948303222656,143.255706787109,0,1,faces,female,1,1,faces,P,male,VS,F,198,E03,827.447265625,1
0,1.0,0,27248,0.77734375,0.14453125,2.0,1.0,11,57,3,1183.49719238281,327.910827636719,0,1,faces,male,1,1,faces,P,female,VS,F,205,E03,856.841796875,1
0,1.0,0,27249,0.943359375,0.162109375,3.0,1.0,13,66,4,1215.70458984375,330.668518066406,0,1,faces,female,1,1,faces,P,female,VS,F,205,E03,856.841796875,1
0,1.0,0,27250,1.1875,0.158203125,4.0,1.0,7,37,5,965.052185058594,133.464706420898,0,1,faces,male,1,1,faces,P,female,VS,F,205,E03,856.841796875,1
0,1.0,1,27253,1.59765625,0.287109375,5.0,0.0,3,11,8,657.620056152344,212.332244873047,0,1,faces,female,1,1,faces,P,female,VS,F,205,E03,856.841796875,1
0,1.0,0,23108,0.45703125,0.109375,2.0,1.0,3,25,2,771.5869140625,747.442932128906,0,1,objects,small,1,1,objects,P,big,VS,O,2,E04,4.400390625,0
0,1.0,0,23109,0.603515625,0.201171875,3.0,1.0,1,5,3,533.082275390625,525.327209472656,0,1,objects,big,1,1,objects,P,big,VS,O,2,E04,4.400390625,0
0,1.0,0,23111,1.033203125,0.14453125,4.0,1.0,4,39,5,926.611999511719,316.064208984375,0,1,faces,female,1,1,objects,P,big,VS,O,2,E04,4.400390625,1
0,1.0,0,23169,0.486328125,0.111328125,2.0,1.0,2,11,2,632.425537109375,216.064514160156,0,1,objects,small,1,1,objects,P,small,VS,O,4,E04,12.798828125,0
0,1.0,0,23224,0.900390625,0.240234375,2.0,1.0,4,17,5,611.873352050781,836.572814941406,0,1,objects,big,1,1,faces,P,male,VS,I,6,E04,21.197265625,0
0,1.0,1,23225,1.162109375,0.142578125,3.0,1.0,2,8,6,539.98046875,844.317443847656,0,1,faces,female,1,1,faces,P,male,VS,I,6,E04,21.197265625,1
0,1.0,0,23227,1.453125,0.1171875,4.0,1.0,7,38,8,945.910217285156,289.681488037109,0,1,objects,small,1,1,faces,P,male,VS,I,6,E04,21.197265625,0
0,1.0,0,23229,1.796875,0.201171875,5.0,0.0,9,48,10,1028.06359863281,314.341430664062,0,1,faces,male,1,1,faces,P,male,VS,I,6,E04,21.197265625,1
0,1.0,1,23268,0.466796875,0.1875,2.0,1.0,11,54,2,1053.26525878906,948.427673339844,0,1,faces,male,1,1,faces,P,male,VS,F,8,E04,29.595703125,1
0,1.0,0,23270,0.81640625,0.318359375,3.0,1.0,12,63,4,1168.25512695312,931.690551757812,0,1,faces,male,1,1,faces,P,male,VS,F,8,E04,29.595703125,1
0,1.0,0,23271,1.162109375,0.353515625,4.0,1.0,14,70,5,1283.42797851562,731.323974609375,0,1,faces,male,1,1,faces,P,male,VS,F,8,E04,29.595703125,1
0,1.0,0,24173,0.408203125,0.166015625,2.0,1.0,11,53,2,1023.64422607422,810.3642578125,0,1,faces,male,1,1,faces,P,female,VS,F,41,E04,168.169921875,1
0,1.0,1,24840,0.828125,0.12890625,2.0,1.0,5,18,3,611.604614257812,958.336669921875,0,1,faces,male,1,1,objects,P,small,VS,O,73,E04,302.544921875,1
0,1.0,0,24842,1.126953125,0.185546875,3.0,1.0,4,15,5,664.263366699219,603.13427734375,0,1,objects,small,1,1,objects,P,small,VS,O,73,E04,302.544921875,0
0,1.0,0,24843,1.3515625,0.11328125,4.0,1.0,3,14,6,698.543212890625,575.202514648438,0,1,faces,female,1,1,objects,P,small,VS,O,73,E04,302.544921875,1
0,1.0,0,24845,1.76171875,0.205078125,5.0,0.0,9,41,8,956.978210449219,552.174194335938,0,1,faces,male,1,1,objects,P,small,VS,O,73,E04,302.544921875,1
0,1.0,0,24846,1.98828125,0.23046875,6.0,0.0,11,51,9,1054.34680175781,641.047668457031,0,1,faces,male,1,1,objects,P,small,VS,O,73,E04,302.544921875,1
0,1.0,0,24847,2.248046875,0.138671875,7.0,0.0,14,70,10,1260.0107421875,724.873657226562,0,1,objects,big,1,1,objects,P,small,VS,O,73,E04,302.544921875,0
0,1.0,0,25239,1.353515625,0.294921875,2.0,1.0,13,77,7,1382.14929199219,558.718383789062,0,1,faces,female,1,1,faces,P,male,VS,F,98,E04,407.525390625,1
0,1.0,0,25361,1.08203125,0.16015625,2.0,1.0,9,58,7,1132.35400390625,461.960876464844,0,1,faces,male,1,1,objects,P,big,VS,O,103,E04,428.521484375,1
0,1.0,0,25362,1.25390625,0.1640625,3.0,1.0,7,49,8,1101.42565917969,454.232269287109,0,1,faces,female,1,1,objects,P,big,VS,O,103,E04,428.521484375,1
0,1.0,0,25364,1.630859375,0.267578125,4.0,1.0,12,74,10,1398.95373535156,268.463165283203,0,1,objects,small,1,1,objects,P,big,VS,O,103,E04,428.521484375,0
0,1.0,0,25366,2.119140625,0.181640625,5.0,0.0,8,53,12,1062.88842773438,819.773864746094,0,1,faces,female,1,1,objects,P,big,VS,O,103,E04,428.521484375,1
0,1.0,0,25369,2.68359375,0.13671875,6.0,0.0,11,67,15,1256.80505371094,430.015777587891,0,1,faces,female,1,1,objects,P,big,VS,O,103,E04,428.521484375,1
0,1.0,0,25776,0.41015625,0.2734375,2.0,1.0,6,17,2,635.384704589844,863.630493164062,0,1,faces,male,1,1,objects,P,small,VS,O,119,E04,495.708984375,1
0,1.0,0,25777,0.7265625,0.16015625,3.0,1.0,3,6,3,587.261291503906,654.040710449219,0,1,faces,female,1,1,objects,P,small,VS,O,119,E04,495.708984375,1
0,1.0,1,25842,0.98828125,0.14453125,2.0,1.0,4,27,6,709.769775390625,933.010131835938,0,1,faces,female,1,1,faces,P,male,VS,I,121,E04,504.107421875,1
0,1.0,0,25846,1.623046875,0.154296875,3.0,1.0,10,53,10,1088.48474121094,829.584777832031,0,1,objects,big,1,1,faces,P,male,VS,I,121,E04,504.107421875,0
0,1.0,0,25966,1.23828125,0.2265625,3.0,1.0,9,50,8,1094.41943359375,551.260314941406,0,1,objects,small,1,1,faces,P,female,VS,F,125,E04,520.904296875,0
0,1.0,0,25967,1.48828125,0.12109375,4.0,1.0,14,68,9,1228.39489746094,560.318603515625,0,1,faces,male,1,1,faces,P,female,VS,F,125,E04,520.904296875,1
0,1.0,0,25968,1.62890625,0.19140625,5.0,0.0,12,60,10,1199.619140625,608.521728515625,0,1,faces,male,1,1,faces,P,female,VS,F,125,E04,520.904296875,1
0,1.0,1,25971,2.20703125,0.107421875,6.0,0.0,7,31,13,886.582458496094,484.253997802734,0,1,faces,male,1,1,faces,P,female,VS,F,125,E04,520.904296875,1
0,1.0,1,25973,2.455078125,0.142578125,7.0,0.0,5,20,15,724.330322265625,248.62092590332,0,1,faces,female,1,1,faces,P,female,VS,F,125,E04,520.904296875,1
0,1.0,1,25998,1.4765625,0.208984375,2.0,1.0,15,80,8,1341.43139648438,826.916320800781,0,1,faces,male,1,1,faces,P,female,VS,F,126,E04,525.103515625,1
0,1.0,0,26331,1.083984375,0.1953125,2.0,1.0,11,68,4,1244.4423828125,567.72705078125,0,1,objects,small,1,1,objects,P,small,VS,O,136,E04,567.095703125,0
0,1.0,1,26893,0.943359375,0.162109375,2.0,1.0,8,51,4,1102.74816894531,670.383483886719,0,1,faces,female,1,1,faces,P,female,VS,I,161,E04,672.076171875,1
0,1.0,0,26895,1.302734375,0.13671875,3.0,1.0,10,60,6,1165.74670410156,646.153564453125,0,1,faces,female,1,1,faces,P,female,VS,I,161,E04,672.076171875,1
0,1.0,1,26897,1.69140625,0.154296875,5.0,0.0,13,65,8,1277.98095703125,246.208312988281,0,1,faces,male,1,1,faces,P,female,VS,I,161,E04,672.076171875,1
0,1.0,0,26899,2.048828125,0.373046875,6.0,0.0,9,56,10,1161.29748535156,248.270736694336,0,1,faces,male,1,1,faces,P,female,VS,I,161,E04,672.076171875,1
0,1.0,0,26900,2.474609375,0.23828125,7.0,0.0,2,13,11,624.411682128906,415.034973144531,0,1,objects,big,1,1,faces,P,female,VS,I,161,E04,672.076171875,0
0,1.0,0,26901,2.744140625,0.439453125,8.0,0.0,4,21,12,773.323608398438,346.121765136719,0,1,faces,male,1,1,faces,P,female,VS,I,161,E04,672.076171875,1
0,1.0,1,26970,0.615234375,0.2734375,2.0,1.0,4,17,2,688.790283203125,873.38623046875,0,1,faces,male,1,1,faces,P,male,VS,I,167,E04,697.271484375,1
0,1.0,0,26973,1.201171875,0.271484375,3.0,1.0,2,5,5,557.700866699219,565.023193359375,0,1,faces,female,1,1,faces,P,male,VS,I,167,E04,697.271484375,1
0,1.0,0,26975,1.650390625,0.236328125,4.0,1.0,9,40,7,972.713989257812,456.826568603516,0,1,faces,male,1,1,faces,P,male,VS,I,167,E04,697.271484375,1
1,1.0,1,26976,1.9140625,0.19921875,5.0,0.0,12,48,8,1098.46984863281,346.651306152344,0,1,faces,male,1,1,faces,P,male,VS,I,167,E04,697.271484375,1
0,1.0,1,27096,0.646484375,0.1796875,2.0,1.0,13,61,3,1193.88623046875,729.315124511719,0,1,faces,male,1,1,faces,P,female,VS,F,173,E04,722.466796875,1
0,1.0,0,27153,1.380859375,0.193359375,2.0,1.0,7,40,5,959.423828125,485.821960449219,0,1,objects,big,1,1,objects,P,small,VS,O,176,E04,735.064453125,0
0,1.0,0,27581,1.58203125,0.25,2.0,1.0,10,51,4,1098.45043945312,669.523498535156,0,1,faces,male,1,1,faces,P,female,VS,F,195,E04,814.849609375,1
0,1.0,0,27582,1.8671875,0.185546875,3.0,1.0,14,79,5,1384.80102539062,787.46142578125,0,1,faces,male,1,1,faces,P,female,VS,F,195,E04,814.849609375,1
0,1.0,0,27583,2.078125,0.111328125,4.0,1.0,15,81,6,1408.24963378906,962.856811523438,0,1,objects,big,1,1,faces,P,female,VS,F,195,E04,814.849609375,0
0,1.0,0,27585,2.388671875,0.138671875,5.0,0.0,12,56,8,1178.54028320312,214.92236328125,0,1,faces,male,1,1,faces,P,female,VS,F,195,E04,814.849609375,1
0,1.0,0,27586,2.546875,0.1875,6.0,0.0,11,55,9,1175.83801269531,126.060585021973,0,1,faces,male,1,1,faces,P,female,VS,F,195,E04,814.849609375,1
0,1.0,0,27599,0.5078125,0.341796875,2.0,1.0,5,27,2,731.130310058594,978.901062011719,0,1,faces,male,1,1,faces,P,male,VS,I,196,E04,819.048828125,1
0,1.0,0,27601,1.03125,0.146484375,3.0,1.0,8,62,4,1196.46008300781,888.897094726562,0,1,objects,small,1,1,faces,P,male,VS,I,196,E04,819.048828125,0
0,1.0,1,27602,1.212890625,0.169921875,4.0,1.0,14,78,5,1366.46447753906,661.057434082031,0,1,faces,male,1,1,faces,P,male,VS,I,196,E04,819.048828125,1
0,1.0,0,27604,1.58203125,0.171875,5.0,0.0,15,79,7,1382.60949707031,743.891723632812,0,1,faces,male,1,1,faces,P,male,VS,I,196,E04,819.048828125,1
0,1.0,0,27749,0.685546875,0.16015625,2.0,1.0,2,6,4,518.598815917969,671.966552734375,0,1,faces,male,1,1,faces,P,female,VS,F,203,E04,848.443359375,1
0,1.0,0,27751,1.013671875,0.13671875,3.0,1.0,4,9,6,520.897155761719,987.762023925781,0,1,faces,female,1,1,faces,P,female,VS,F,203,E04,848.443359375,1
0,1.0,0,27753,1.3515625,0.15625,4.0,1.0,9,52,8,1065.21301269531,773.735473632812,0,1,objects,big,1,1,faces,P,female,VS,F,203,E04,848.443359375,0
0,1.0,0,27755,1.748046875,0.193359375,5.0,0.0,15,80,10,1389.67895507812,837.215209960938,0,1,faces,female,1,1,faces,P,female,VS,F,203,E04,848.443359375,1
0,1.0,0,27756,1.982421875,0.28515625,6.0,0.0,8,50,11,1054.05517578125,543.630859375,0,1,faces,male,1,1,faces,P,female,VS,F,203,E04,848.443359375,1
1,1.0,1,27757,2.291015625,0.10546875,7.0,0.0,11,58,12,1148.5244140625,465.563629150391,0,1,faces,female,1,1,faces,P,female,VS,F,203,E04,848.443359375,1
0,1.0,0,27759,2.54296875,0.287109375,8.0,0.0,7,40,14,947.095458984375,437.02783203125,0,1,faces,male,1,1,faces,P,female,VS,F,203,E04,848.443359375,1
0,1.0,0,27761,3.255859375,0.328125,10.0,0.0,6,21,16,714.26708984375,335.690979003906,0,1,faces,female,1,1,faces,P,female,VS,F,203,E04,848.443359375,1
1,1.0,1,27773,0.58984375,0.263671875,2.0,1.0,7,26,3,763.50732421875,865.285217285156,0,1,objects,small,1,1,objects,P,small,VS,O,204,E04,852.642578125,0
0,1.0,1,27775,1.212890625,0.15234375,3.0,1.0,11,70,5,1249.72985839844,748.124755859375,0,1,faces,female,1,1,objects,P,small,VS,O,204,E04,852.642578125,1
0,1.0,0,27777,1.564453125,0.115234375,4.0,1.0,10,69,7,1284.12133789062,624.889831542969,0,1,faces,female,1,1,objects,P,small,VS,O,204,E04,852.642578125,1
0,1.0,0,27793,0.90625,0.1015625,2.0,1.0,15,79,4,1370.25280761719,707.794250488281,0,1,objects,big,1,1,objects,P,big,VS,O,205,E04,856.841796875,0
0,1.0,0,27794,1.08984375,0.19921875,3.0,1.0,8,31,5,849.187805175781,471.180389404297,0,1,objects,big,1,1,objects,P,big,VS,O,205,E04,856.841796875,0
0,1.0,1,27797,1.693359375,0.15234375,4.0,1.0,6,20,8,766.975646972656,250.065032958984,0,1,faces,female,1,1,objects,P,big,VS,O,205,E04,856.841796875,1
0,1.0,1,27799,2.046875,0.171875,5.0,0.0,11,63,10,1128.46215820312,943.239685058594,0,1,faces,female,1,1,objects,P,big,VS,O,205,E04,856.841796875,1
0,1.0,0,23075,0.62890625,0.240234375,2.0,1.0,3,13,3,653.833251953125,427.912353515625,0,1,faces,male,1,1,faces,P,female,VS,F,1,E05,0.201171875,1
0,1.0,0,23077,1.06640625,0.19921875,3.0,1.0,2,6,5,549.543029785156,645.644348144531,0,1,faces,male,1,1,faces,P,female,VS,F,1,E05,0.201171875,1
0,1.0,0,23078,1.31640625,0.220703125,4.0,1.0,4,15,6,671.090148925781,637.737365722656,0,1,faces,female,1,1,faces,P,female,VS,F,1,E05,0.201171875,1
0,1.0,1,23084,2.453125,0.109375,6.0,0.0,1,3,12,553.034545898438,332.002471923828,0,1,faces,male,1,1,faces,P,female,VS,F,1,E05,0.201171875,1
0,1.0,1,23087,2.91015625,0.19140625,7.0,0.0,10,37,15,960.407348632812,100.593719482422,0,1,faces,male,1,1,faces,P,female,VS,F,1,E05,0.201171875,1
0,1.0,0,23088,3.150390625,0.130859375,8.0,0.0,14,46,16,1087.22106933594,109.582618713379,0,1,faces,female,1,1,faces,P,female,VS,F,1,E05,0.201171875,1
0,1.0,1,23089,3.361328125,0.123046875,9.0,0.0,13,45,17,926.23486328125,917.552429199219,0,1,faces,female,1,1,faces,P,female,VS,F,1,E05,0.201171875,1
0,1.0,0,23113,0.556640625,0.162109375,2.0,1.0,4,14,2,638.741638183594,535.236389160156,0,1,objects,big,1,1,faces,P,male,VS,I,2,E05,4.400390625,0
0,1.0,0,23114,0.775390625,0.185546875,3.0,1.0,5,25,3,723.580261230469,762.073547363281,0,1,objects,big,1,1,faces,P,male,VS,I,2,E05,4.400390625,0
0,1.0,0,23116,1.177734375,0.17578125,4.0,1.0,9,56,5,1164.36730957031,249.487609863281,0,1,objects,small,1,1,faces,P,male,VS,I,2,E05,4.400390625,0
0,1.0,0,23117,1.39453125,0.197265625,5.0,0.0,10,64,6,1248.2802734375,171.180999755859,0,1,objects,small,1,1,faces,P,male,VS,I,2,E05,4.400390625,0
0,1.0,0,23118,1.654296875,0.1484375,6.0,0.0,12,66,7,1274.79919433594,334.161712646484,0,1,faces,male,1,1,faces,P,male,VS,I,2,E05,4.400390625,1
0,1.0,1,23119,1.876953125,0.1015625,7.0,0.0,3,12,8,645.873474121094,369.636016845703,0,1,faces,female,1,1,faces,P,male,VS,I,2,E05,4.400390625,1
0,1.0,0,23121,2.3828125,0.24609375,8.0,0.0,1,1,10,566.09912109375,131.641448974609,0,1,faces,female,1,1,faces,P,male,VS,I,2,E05,4.400390625,1
0,1.0,0,23448,0.763671875,0.14453125,2.0,1.0,4,8,4,541.468383789062,833.268310546875,0,1,faces,female,1,1,faces,P,female,VS,F,12,E05,46.392578125,1
0,1.0,0,23449,0.96875,0.11328125,3.0,1.0,3,6,5,561.913513183594,624.317443847656,0,1,faces,female,1,1,faces,P,female,VS,F,12,E05,46.392578125,1
0,1.0,0,23450,1.13671875,0.15234375,4.0,1.0,2,4,6,554.160827636719,439.949066162109,0,1,faces,male,1,1,faces,P,female,VS,F,12,E05,46.392578125,1
0,1.0,0,23451,1.35546875,0.109375,5.0,0.0,1,1,7,563.520935058594,131.094650268555,0,1,faces,male,1,1,faces,P,female,VS,F,12,E05,46.392578125,1
1,1.0,0,23480,0.49609375,0.107421875,2.0,1.0,6,29,3,828.7099609375,236.708984375,0,1,faces,female,1,1,objects,P,small,VS,O,13,E05,50.591796875,1
0,1.0,0,23481,0.6640625,0.154296875,3.0,1.0,1,3,4,547.102661132812,329.0693359375,0,1,objects,small,1,1,objects,P,small,VS,O,13,E05,50.591796875,0
0,1.0,0,23484,1.181640625,0.177734375,4.0,1.0,7,35,7,853.653747558594,868.411254882812,0,1,faces,male,1,1,objects,P,small,VS,O,13,E05,50.591796875,1
1,1.0,0,23551,0.640625,0.115234375,2.0,1.0,7,20,4,802.868286132812,252.022811889648,0,1,faces,female,1,1,faces,P,female,VS,I,15,E05,58.990234375,1
0,1.0,0,23552,0.775390625,0.212890625,3.0,1.0,9,29,5,844.815490722656,242.512359619141,0,1,faces,female,1,1,faces,P,female,VS,I,15,E05,58.990234375,1
0,1.0,0,23554,1.23046875,0.181640625,5.0,0.0,2,10,7,688.707885742188,154.009857177734,0,1,objects,small,1,1,faces,P,female,VS,I,15,E05,58.990234375,0
0,1.0,0,23555,1.46875,0.224609375,6.0,0.0,3,12,8,657.526000976562,347.047393798828,0,1,faces,male,1,1,faces,P,female,VS,I,15,E05,58.990234375,1
0,1.0,0,23556,1.765625,0.111328125,7.0,0.0,4,14,9,654.578247070312,587.246704101562,0,1,faces,male,1,1,faces,P,female,VS,I,15,E05,58.990234375,1
0,1.0,1,23854,0.458984375,0.107421875,2.0,1.0,7,39,2,982.382019042969,387.888458251953,0,1,faces,female,1,1,faces,P,female,VS,I,25,E05,100.982421875,1
0,1.0,0,23856,0.81640625,0.29296875,3.0,1.0,6,37,4,957.749450683594,137.598922729492,0,1,faces,female,1,1,faces,P,female,VS,I,25,E05,100.982421875,1
0,1.0,0,23858,1.33203125,0.162109375,4.0,1.0,15,75,6,1348.69140625,365.013885498047,0,1,faces,male,1,1,faces,P,female,VS,I,25,E05,100.982421875,1
0,1.0,0,23859,1.5546875,0.16796875,5.0,0.0,11,59,7,1190.58898925781,552.154907226562,0,1,faces,female,1,1,faces,P,female,VS,I,25,E05,100.982421875,1
0,1.0,0,24064,0.62890625,0.126953125,2.0,1.0,4,8,3,582.595397949219,876.773193359375,0,1,objects,big,1,1,faces,P,female,VS,F,32,E05,130.376953125,0
0,1.0,0,24065,0.775390625,0.15625,3.0,1.0,6,17,4,615.998046875,876.910278320312,0,1,faces,female,1,1,faces,P,female,VS,F,32,E05,130.376953125,1
0,1.0,0,24066,0.99609375,0.205078125,4.0,1.0,10,45,5,931.394409179688,987.373901367188,0,1,faces,female,1,1,faces,P,female,VS,F,32,E05,130.376953125,1
0,1.0,1,24134,0.755859375,0.10546875,2.0,1.0,3,14,5,656.282104492188,573.832336425781,0,1,objects,big,1,1,objects,P,small,VS,O,34,E05,138.775390625,0
1,1.0,0,24136,1.017578125,0.169921875,3.0,1.0,7,50,7,1055.04772949219,526.164672851562,0,1,faces,male,1,1,objects,P,small,VS,O,34,E05,138.775390625,1
1,1.0,0,24137,1.24609375,0.15625,4.0,1.0,9,57,8,1162.24768066406,335.880432128906,0,1,objects,big,1,1,objects,P,small,VS,O,34,E05,138.775390625,0
0,1.0,0,24203,0.47265625,0.173828125,2.0,1.0,1,4,3,540.760681152344,454.238494873047,0,1,objects,big,1,1,objects,P,big,VS,O,36,E05,147.173828125,0
0,1.0,0,24205,0.84375,0.107421875,3.0,1.0,5,48,5,1052.30480957031,333.542541503906,0,1,objects,small,1,1,objects,P,big,VS,O,36,E05,147.173828125,0
0,1.0,0,24206,1.01171875,0.130859375,4.0,1.0,4,37,6,965.772766113281,120.077568054199,0,1,faces,male,1,1,objects,P,big,VS,O,36,E05,147.173828125,1
0,1.0,1,24207,1.19921875,0.123046875,5.0,0.0,9,65,7,1250.33081054688,252.891494750977,0,1,faces,female,1,1,objects,P,big,VS,O,36,E05,147.173828125,1
0,1.0,0,24338,0.55078125,0.20703125,2.0,1.0,6,21,3,731.813903808594,311.573303222656,0,1,faces,male,1,1,faces,P,male,VS,F,40,E05,163.970703125,1
0,1.0,0,24339,0.8203125,0.30859375,3.0,1.0,3,15,4,650.765747070312,627.958190917969,0,1,faces,male,1,1,faces,P,male,VS,F,40,E05,163.970703125,1
0,1.0,0,24340,1.203125,0.169921875,4.0,1.0,10,34,5,856.234741210938,752.678894042969,0,1,faces,female,1,1,faces,P,male,VS,F,40,E05,163.970703125,1
0,1.0,0,24341,1.427734375,0.12890625,5.0,0.0,13,61,6,1144.80224609375,744.017272949219,0,1,objects,small,1,1,faces,P,male,VS,F,40,E05,163.970703125,0
0,1.0,0,24343,1.728515625,0.22265625,6.0,0.0,14,68,8,1258.49743652344,525.368041992188,0,1,faces,male,1,1,faces,P,male,VS,F,40,E05,163.970703125,1
0,1.0,1,24345,2.296875,0.1953125,8.0,0.0,8,28,10,835.706970214844,117.985488891602,0,1,faces,female,1,1,faces,P,male,VS,F,40,E05,163.970703125,1
0,1.0,0,24347,2.6171875,0.18359375,9.0,0.0,5,19,12,746.006408691406,136.770980834961,0,1,faces,male,1,1,faces,P,male,VS,F,40,E05,163.970703125,1
0,1.0,0,24406,0.681640625,0.189453125,2.0,1.0,6,39,4,968.4091796875,322.423461914062,0,1,faces,male,1,1,faces,P,female,VS,I,42,E05,172.369140625,1
0,1.0,0,24565,0.6171875,0.13671875,2.0,1.0,10,52,3,1060.13244628906,744.911804199219,0,1,objects,big,1,1,faces,P,female,VS,F,47,E05,193.365234375,0
0,1.0,0,24566,0.806640625,0.19921875,3.0,1.0,12,60,4,1158.10144042969,619.43408203125,0,1,faces,male,1,1,faces,P,female,VS,F,47,E05,193.365234375,1
0,1.0,1,24567,1.072265625,0.115234375,4.0,1.0,14,72,5,1280.64660644531,975.729736328125,0,1,faces,male,1,1,faces,P,female,VS,F,47,E05,193.365234375,1
0,1.0,1,24632,0.845703125,0.1015625,2.0,1.0,3,11,7,664.318420410156,254.312103271484,0,1,faces,male,1,1,faces,P,female,VS,F,49,E05,201.763671875,1
0,1.0,0,24942,0.97265625,0.1640625,2.0,1.0,10,65,6,1254.81628417969,212.547805786133,0,1,objects,big,1,1,faces,P,female,VS,F,59,E05,243.755859375,0
0,1.0,0,24943,1.18359375,0.138671875,3.0,1.0,14,74,7,1354.67724609375,214.426681518555,0,1,faces,female,1,1,faces,P,female,VS,F,59,E05,243.755859375,1
0,1.0,1,24944,1.388671875,0.109375,4.0,1.0,8,50,8,1076.26440429688,494.123870849609,0,1,faces,male,1,1,faces,P,female,VS,F,59,E05,243.755859375,1
1,1.0,0,24969,0.923828125,0.13671875,2.0,1.0,7,30,5,890.845825195312,314.062438964844,0,1,faces,male,1,1,objects,P,small,VS,O,60,E05,247.955078125,1
1,1.0,0,24970,1.12109375,0.1328125,3.0,1.0,13,66,6,1225.2763671875,348.454650878906,0,1,objects,big,1,1,objects,P,small,VS,O,60,E05,247.955078125,0
0,1.0,1,25089,0.8515625,0.134765625,2.0,1.0,8,48,3,1070.07177734375,376.944030761719,0,1,faces,male,1,1,faces,P,male,VS,I,64,E05,264.751953125,1
0,1.0,0,25091,1.19140625,0.12890625,3.0,1.0,13,64,5,1252.75573730469,113.80696105957,0,1,faces,female,1,1,faces,P,male,VS,I,64,E05,264.751953125,1
0,1.0,0,25092,1.40625,0.169921875,4.0,1.0,2,17,6,621.630432128906,882.686401367188,0,1,faces,female,1,1,faces,P,male,VS,I,64,E05,264.751953125,1
1,1.0,0,25093,1.607421875,0.1015625,5.0,0.0,1,9,7,598.728210449219,934.274780273438,0,1,faces,female,1,1,faces,P,male,VS,I,64,E05,264.751953125,1
0,1.0,0,25244,0.578125,0.205078125,2.0,1.0,4,20,2,751.322387695312,231.630920410156,0,1,faces,male,1,1,objects,P,big,VS,O,69,E05,285.748046875,1
0,1.0,0,25246,0.96484375,0.228515625,3.0,1.0,9,46,4,1034.03173828125,137.028167724609,0,1,faces,male,1,1,objects,P,big,VS,O,69,E05,285.748046875,1
0,1.0,0,25247,1.25,0.10546875,4.0,1.0,12,65,5,1255.37048339844,208.905792236328,0,1,objects,small,1,1,objects,P,big,VS,O,69,E05,285.748046875,0
0,1.0,0,25249,1.55078125,0.13671875,5.0,0.0,14,75,7,1353.32788085938,371.433227539062,0,1,faces,male,1,1,objects,P,big,VS,O,69,E05,285.748046875,1
0,1.0,1,25250,1.7578125,0.23046875,6.0,0.0,13,69,8,1294.32861328125,618.087524414062,0,1,faces,female,1,1,objects,P,big,VS,O,69,E05,285.748046875,1
0,1.0,0,25254,2.544921875,0.10546875,7.0,0.0,3,17,12,619.870849609375,857.339965820312,0,1,objects,big,1,1,objects,P,big,VS,O,69,E05,285.748046875,0
1,1.0,0,25275,0.41015625,0.14453125,2.0,1.0,5,32,2,862.251403808594,530.229187011719,0,1,faces,female,1,1,faces,P,male,VS,F,70,E05,289.947265625,1
0,1.0,0,25276,0.615234375,0.140625,3.0,1.0,1,8,3,529.045593261719,806.478759765625,0,1,faces,male,1,1,faces,P,male,VS,F,70,E05,289.947265625,1
0,1.0,0,25342,0.84765625,0.27734375,2.0,1.0,2,25,4,740.736145019531,746.602355957031,0,1,faces,female,1,1,faces,P,male,VS,I,72,E05,298.345703125,1
0,1.0,0,25343,1.18359375,0.23046875,3.0,1.0,3,27,5,718.543518066406,980.253967285156,0,1,faces,male,1,1,faces,P,male,VS,I,72,E05,298.345703125,1
0,1.0,1,25344,1.470703125,0.20703125,4.0,1.0,1,9,6,529.1201171875,969.373657226562,0,1,faces,female,1,1,faces,P,male,VS,I,72,E05,298.345703125,1
0,1.0,0,25348,2.125,0.1875,5.0,0.0,13,72,10,1274.86608886719,959.545349121094,0,1,faces,male,1,1,faces,P,male,VS,I,72,E05,298.345703125,1
0,1.0,1,25351,2.72265625,0.1484375,7.0,0.0,12,69,13,1265.16845703125,609.387512207031,0,1,faces,female,1,1,faces,P,male,VS,I,72,E05,298.345703125,1
0,1.0,0,25639,1.09375,0.126953125,2.0,1.0,12,54,5,1030.85583496094,912.561889648438,0,1,objects,small,1,1,objects,P,big,VS,O,75,E05,310.943359375,0
0,1.0,0,25803,1.013671875,0.197265625,3.0,1.0,7,34,6,840.700500488281,693.066772460938,0,1,faces,male,1,1,faces,P,male,VS,I,80,E05,331.939453125,1
1,1.0,0,25831,0.994140625,0.16796875,2.0,1.0,3,11,5,616.762817382812,221.718276977539,0,1,objects,big,1,1,faces,P,female,VS,F,81,E05,336.138671875,0
0,1.0,0,25832,1.2109375,0.1328125,3.0,1.0,2,3,6,544.668884277344,298.932281494141,0,1,faces,male,1,1,faces,P,female,VS,F,81,E05,336.138671875,1
0,1.0,0,25833,1.408203125,0.228515625,4.0,1.0,6,19,7,718.384765625,101.247276306152,0,1,faces,male,1,1,faces,P,female,VS,F,81,E05,336.138671875,1
0,1.0,0,25835,1.900390625,0.154296875,6.0,0.0,13,70,9,1242.61535644531,772.783874511719,0,1,objects,small,1,1,faces,P,female,VS,F,81,E05,336.138671875,0
0,1.0,0,25836,2.107421875,0.150390625,7.0,0.0,12,62,10,1139.43249511719,809.265258789062,0,1,faces,male,1,1,faces,P,female,VS,F,81,E05,336.138671875,1
0,1.0,0,25863,0.9765625,0.189453125,2.0,1.0,6,30,4,838.1376953125,311.961730957031,0,1,objects,small,1,1,objects,P,big,VS,O,82,E05,340.337890625,0
0,1.0,0,25864,1.224609375,0.201171875,3.0,1.0,11,49,5,1061.02600097656,410.202911376953,0,1,faces,male,1,1,objects,P,big,VS,O,82,E05,340.337890625,1
0,1.0,0,25865,1.505859375,0.17578125,4.0,1.0,13,70,6,1259.14965820312,705.017822265625,0,1,faces,male,1,1,objects,P,big,VS,O,82,E05,340.337890625,1
0,1.0,0,25995,1.083984375,0.25390625,2.0,1.0,5,25,5,738.1904296875,721.91845703125,0,1,faces,female,1,1,faces,P,male,VS,I,86,E05,357.134765625,1
0,1.0,0,26364,0.466796875,0.29296875,2.0,1.0,6,14,2,645.601379394531,571.737365722656,0,1,faces,female,1,1,faces,P,male,VS,F,98,E05,407.525390625,1
0,1.0,1,26566,0.56640625,0.12890625,2.0,1.0,10,52,3,1023.16479492188,724.226623535156,0,1,faces,male,1,1,faces,P,female,VS,F,105,E05,436.919921875,1
0,1.0,0,26568,0.900390625,0.396484375,3.0,1.0,11,53,5,1056.91052246094,851.360778808594,0,1,faces,male,1,1,faces,P,female,VS,F,105,E05,436.919921875,1
0,1.0,0,26571,1.716796875,0.158203125,4.0,1.0,2,8,8,540.464233398438,863.537414550781,0,1,faces,male,1,1,faces,P,female,VS,F,105,E05,436.919921875,1
0,1.0,1,26573,2.11328125,0.21484375,5.0,0.0,15,77,10,1325.87463378906,512.327758789062,0,1,faces,female,1,1,faces,P,female,VS,F,105,E05,436.919921875,1
0,1.0,0,26575,2.515625,0.205078125,6.0,0.0,14,76,12,1375.29968261719,397.971405029297,0,1,faces,male,1,1,faces,P,female,VS,F,105,E05,436.919921875,1
0,1.0,0,26578,3.06640625,0.140625,8.0,0.0,6,29,15,846.168518066406,259.378692626953,0,1,faces,male,1,1,faces,P,female,VS,F,105,E05,436.919921875,1
1,1.0,0,26684,0.61328125,0.177734375,2.0,1.0,6,13,3,667.460021972656,461.476959228516,0,1,objects,small,1,1,objects,P,small,VS,O,109,E05,453.716796875,0
0,1.0,0,26781,0.546875,0.189453125,2.0,1.0,9,31,2,840.564270019531,414.198211669922,0,1,objects,big,1,1,faces,P,female,VS,F,112,E05,466.314453125,0
0,1.0,0,26782,0.771484375,0.130859375,3.0,1.0,8,30,3,851.333801269531,339.906585693359,0,1,objects,big,1,1,faces,P,female,VS,F,112,E05,466.314453125,0
0,1.0,0,26783,0.962890625,0.1328125,4.0,1.0,4,13,4,644.753051757812,445.5009765625,0,1,faces,female,1,1,faces,P,female,VS,F,112,E05,466.314453125,1
0,1.0,0,26784,1.162109375,0.189453125,5.0,0.0,12,59,5,1168.02282714844,518.830078125,0,1,faces,female,1,1,faces,P,female,VS,F,112,E05,466.314453125,1
0,1.0,0,26786,1.611328125,0.162109375,7.0,0.0,13,70,7,1280.08825683594,762.374267578125,0,1,faces,male,1,1,faces,P,female,VS,F,112,E05,466.314453125,1
0,1.0,0,26942,0.625,0.236328125,2.0,1.0,3,6,3,532.133972167969,651.583557128906,0,1,faces,female,1,1,faces,P,female,VS,F,117,E05,487.310546875,1
0,1.0,0,26943,0.919921875,0.240234375,3.0,1.0,2,4,4,561.145935058594,419.127227783203,0,1,objects,big,1,1,faces,P,female,VS,F,117,E05,487.310546875,0
0,1.0,0,26944,1.212890625,0.13671875,4.0,1.0,5,12,5,622.159240722656,323.589202880859,0,1,objects,big,1,1,faces,P,female,VS,F,117,E05,487.310546875,0
0,1.0,0,26945,1.384765625,0.1328125,5.0,0.0,1,2,6,545.62744140625,264.039276123047,0,1,faces,female,1,1,faces,P,female,VS,F,117,E05,487.310546875,1
0,1.0,0,26946,1.576171875,0.1484375,6.0,0.0,8,22,7,730.354797363281,429.191986083984,0,1,faces,male,1,1,faces,P,female,VS,F,117,E05,487.310546875,1
0,1.0,0,26948,1.947265625,0.162109375,7.0,0.0,10,48,9,1065.04931640625,347.609802246094,0,1,faces,male,1,1,faces,P,female,VS,F,117,E05,487.310546875,1
0,1.0,0,26949,2.169921875,0.189453125,8.0,0.0,9,37,10,946.292175292969,133.346618652344,0,1,faces,female,1,1,faces,P,female,VS,F,117,E05,487.310546875,1
0,1.0,0,26950,2.416015625,0.15625,9.0,0.0,7,19,11,753.148803710938,144.893142700195,0,1,faces,male,1,1,faces,P,female,VS,F,117,E05,487.310546875,1
0,1.0,0,26951,2.638671875,0.220703125,10.0,0.0,12,64,12,1244.46887207031,142.218765258789,0,1,objects,small,1,1,faces,P,female,VS,F,117,E05,487.310546875,0
0,1.0,0,26952,2.9375,0.115234375,11.0,0.0,15,78,13,1322.35827636719,622.429809570312,0,1,objects,small,1,1,faces,P,female,VS,F,117,E05,487.310546875,0
0,1.0,0,26972,0.419921875,0.181640625,2.0,1.0,3,20,2,753.832214355469,281.866668701172,0,1,faces,male,1,1,objects,P,small,VS,O,118,E05,491.509765625,1
0,1.0,0,26975,0.9140625,0.166015625,3.0,1.0,12,66,5,1292.15051269531,308.150543212891,0,1,objects,small,1,1,objects,P,small,VS,O,118,E05,491.509765625,0
0,1.0,0,26976,1.115234375,0.224609375,4.0,1.0,11,65,6,1253.56286621094,226.960021972656,0,1,faces,female,1,1,objects,P,small,VS,O,118,E05,491.509765625,1
0,1.0,0,27000,0.818359375,0.1640625,2.0,1.0,15,79,4,1397.65197753906,722.046691894531,0,1,faces,female,1,1,objects,P,big,VS,O,119,E05,495.708984375,1
0,1.0,0,27001,1.0546875,0.21875,3.0,1.0,7,27,5,730.719116210938,951.913452148438,0,1,faces,male,1,1,objects,P,big,VS,O,119,E05,495.708984375,1
0,1.0,0,27003,1.517578125,0.162109375,5.0,0.0,1,2,7,556.589599609375,267.717681884766,0,1,faces,male,1,1,objects,P,big,VS,O,119,E05,495.708984375,1
0,1.0,1,27156,1.0078125,0.15625,2.0,1.0,6,22,5,781.806823730469,477.748382568359,0,1,faces,female,1,1,objects,P,small,VS,O,124,E05,516.705078125,1
0,1.0,1,27159,1.490234375,0.10546875,3.0,1.0,5,20,8,773.938781738281,221.765441894531,0,1,faces,male,1,1,objects,P,small,VS,O,124,E05,516.705078125,1
1,1.0,0,27161,1.853515625,0.11328125,5.0,0.0,12,65,10,1253.88195800781,247.339813232422,0,1,objects,small,1,1,objects,P,small,VS,O,124,E05,516.705078125,0
0,1.0,1,27307,0.671875,0.1875,2.0,1.0,3,7,4,522.211242675781,706.410095214844,0,1,faces,male,1,1,faces,P,female,VS,I,129,E05,537.701171875,1
0,1.0,0,27309,1.1875,0.140625,3.0,1.0,4,8,6,515.423095703125,874.725463867188,0,1,faces,female,1,1,faces,P,female,VS,I,129,E05,537.701171875,1
0,1.0,0,27310,1.38671875,0.181640625,4.0,1.0,2,6,7,520.673828125,663.193481445312,0,1,faces,male,1,1,faces,P,female,VS,I,129,E05,537.701171875,1
0,1.0,1,27311,1.63671875,0.16796875,5.0,0.0,11,56,8,1175.32690429688,251.883560180664,0,1,faces,male,1,1,faces,P,female,VS,I,129,E05,537.701171875,1
0,1.0,1,27313,2.0,0.126953125,6.0,0.0,8,37,10,916.966857910156,161.808792114258,0,1,faces,female,1,1,faces,P,female,VS,I,129,E05,537.701171875,1
0,1.0,1,27315,2.365234375,0.205078125,7.0,0.0,15,74,12,1354.13330078125,230.40690612793,0,1,faces,male,1,1,faces,P,female,VS,I,129,E05,537.701171875,1
0,1.0,0,27317,2.734375,0.263671875,8.0,0.0,1,2,14,549.140075683594,244.034057617188,0,1,faces,female,1,1,faces,P,female,VS,I,129,E05,537.701171875,1
0,1.0,0,27318,3.076171875,0.171875,9.0,0.0,12,61,15,1120.76867675781,775.131042480469,0,1,objects,big,1,1,faces,P,female,VS,I,129,E05,537.701171875,0
0,1.0,0,27319,3.30859375,0.240234375,10.0,0.0,6,27,16,755.163757324219,979.310119628906,0,1,objects,big,1,1,faces,P,female,VS,I,129,E05,537.701171875,0
0,1.0,0,27437,1.232421875,0.16015625,2.0,1.0,14,70,6,1256.14331054688,770.85546875,0,1,faces,female,1,1,faces,P,female,VS,F,133,E05,554.498046875,1
0,1.0,1,27438,1.453125,0.111328125,3.0,1.0,10,45,7,975.323791503906,959.715087890625,0,1,faces,male,1,1,faces,P,female,VS,F,133,E05,554.498046875,1
1,1.0,0,27528,0.7734375,0.169921875,2.0,1.0,3,10,4,632.799560546875,155.56852722168,0,1,faces,female,1,1,faces,P,male,VS,F,136,E05,567.095703125,1
0,1.0,0,27529,1.029296875,0.17578125,3.0,1.0,13,67,5,1256.01000976562,473.285339355469,0,1,faces,female,1,1,faces,P,male,VS,F,136,E05,567.095703125,1
0,1.0,0,27530,1.259765625,0.212890625,4.0,1.0,12,60,6,1160.36450195312,648.389770507812,0,1,faces,male,1,1,faces,P,male,VS,F,136,E05,567.095703125,1
0,1.0,1,27531,1.53515625,0.14453125,5.0,0.0,8,36,7,903.770385742188,893.236267089844,0,1,objects,big,1,1,faces,P,male,VS,F,136,E05,567.095703125,0
0,1.0,0,27562,1.158203125,0.275390625,2.0,1.0,8,38,6,959.038024902344,248.988800048828,0,1,faces,female,1,1,faces,P,female,VS,I,137,E05,571.294921875,1
0,1.0,0,27563,1.50390625,0.234375,3.0,1.0,15,78,7,1359.51379394531,634.141296386719,0,1,faces,female,1,1,faces,P,female,VS,I,137,E05,571.294921875,1
0,1.0,1,27564,1.8203125,0.12109375,4.0,1.0,7,37,8,975.542236328125,157.128555297852,0,1,faces,female,1,1,faces,P,female,VS,I,137,E05,571.294921875,1
0,1.0,0,27566,2.1640625,0.142578125,5.0,0.0,6,28,10,826.94970703125,143.773788452148,0,1,faces,female,1,1,faces,P,female,VS,I,137,E05,571.294921875,1
0,1.0,0,27567,2.3671875,0.1484375,6.0,0.0,11,56,11,1133.02209472656,269.204681396484,0,1,faces,male,1,1,faces,P,female,VS,I,137,E05,571.294921875,1
1,1.0,1,27649,0.796875,0.134765625,2.0,1.0,9,60,4,1194.94812011719,612.384887695312,0,1,faces,male,1,1,faces,P,female,VS,I,140,E05,583.892578125,1
0,1.0,1,27651,1.13671875,0.13671875,3.0,1.0,6,45,6,952.874328613281,938.059509277344,0,1,faces,male,1,1,faces,P,female,VS,I,140,E05,583.892578125,1
1,1.0,0,27653,1.4296875,0.228515625,4.0,1.0,4,32,8,873.505126953125,541.322570800781,0,1,faces,female,1,1,faces,P,female,VS,I,140,E05,583.892578125,1
0,1.0,0,27657,2.181640625,0.234375,6.0,0.0,7,47,12,1023.42156982422,234.68913269043,0,1,objects,big,1,1,faces,P,female,VS,I,140,E05,583.892578125,0
0,1.0,0,27658,2.4609375,0.1015625,7.0,0.0,5,38,13,948.889953613281,245.44352722168,0,1,faces,male,1,1,faces,P,female,VS,I,140,E05,583.892578125,1
0,1.0,0,27659,2.62109375,0.25,8.0,0.0,12,66,14,1266.68322753906,339.405212402344,0,1,objects,small,1,1,faces,P,female,VS,I,140,E05,583.892578125,0
0,1.0,0,27660,2.904296875,0.16796875,9.0,0.0,11,65,15,1252.11682128906,278.138031005859,0,1,objects,small,1,1,faces,P,female,VS,I,140,E05,583.892578125,0
0,1.0,0,27661,3.125,0.1796875,10.0,0.0,8,55,16,1130.28234863281,168.750305175781,0,1,objects,big,1,1,faces,P,female,VS,I,140,E05,583.892578125,0
0,1.0,0,27664,3.78125,0.138671875,12.0,0.0,13,68,19,1277.32727050781,561.2216796875,0,1,faces,male,1,1,faces,P,female,VS,I,140,E05,583.892578125,1
0,1.0,0,27676,0.611328125,0.169921875,2.0,1.0,10,44,3,971.022094726562,855.347900390625,0,1,faces,male,1,1,faces,P,male,VS,F,141,E05,588.091796875,1
0,1.0,0,27677,0.84765625,0.275390625,3.0,1.0,1,7,4,562.832214355469,770.900024414062,0,1,faces,female,1,1,faces,P,male,VS,F,141,E05,588.091796875,1
0,1.0,0,27704,0.6875,0.34375,2.0,1.0,4,12,3,659.031127929688,347.313629150391,0,1,faces,male,1,1,faces,P,male,VS,F,142,E05,592.291015625,1
0,1.0,0,27705,1.083984375,0.119140625,3.0,1.0,5,21,4,774.019775390625,363.237487792969,0,1,faces,male,1,1,faces,P,male,VS,F,142,E05,592.291015625,1
0,1.0,0,27706,1.255859375,0.142578125,4.0,1.0,6,22,5,761.009094238281,449.167816162109,0,1,faces,female,1,1,faces,P,male,VS,F,142,E05,592.291015625,1
0,1.0,0,27707,1.46484375,0.1953125,5.0,0.0,7,25,6,756.672729492188,784.91455078125,0,1,faces,female,1,1,faces,P,male,VS,F,142,E05,592.291015625,1
0,1.0,0,27709,1.845703125,0.134765625,6.0,0.0,2,8,8,519.17138671875,887.640075683594,0,1,faces,female,1,1,faces,P,male,VS,F,142,E05,592.291015625,1
0,1.0,0,27730,0.57421875,0.138671875,2.0,1.0,3,11,3,675.758544921875,285.457336425781,0,1,objects,small,1,1,objects,P,big,VS,O,143,E05,596.490234375,0
0,1.0,0,27731,0.779296875,0.232421875,3.0,1.0,9,50,4,1072.857421875,502.035705566406,0,1,faces,female,1,1,objects,P,big,VS,O,143,E05,596.490234375,1
0,1.0,0,27732,1.068359375,0.212890625,4.0,1.0,12,69,5,1245.1162109375,659.046203613281,0,1,faces,female,1,1,objects,P,big,VS,O,143,E05,596.490234375,1
0,1.0,1,27990,0.77734375,0.17578125,2.0,1.0,8,41,4,1000.34643554688,557.048095703125,0,1,faces,female,1,1,faces,P,female,VS,F,146,E05,609.087890625,1
0,1.0,0,27992,1.138671875,0.251953125,3.0,1.0,6,30,6,846.336059570312,337.641754150391,0,1,objects,small,1,1,faces,P,female,VS,F,146,E05,609.087890625,0
0,1.0,0,27994,1.515625,0.23828125,4.0,1.0,3,19,8,735.218872070312,166.011932373047,0,1,faces,male,1,1,faces,P,female,VS,F,146,E05,609.087890625,1
0,1.0,0,27995,1.802734375,0.1484375,5.0,0.0,1,10,9,654.978088378906,169.246688842773,0,1,faces,male,1,1,faces,P,female,VS,F,146,E05,609.087890625,1
0,1.0,0,27996,2.0234375,0.21875,6.0,0.0,15,74,10,1323.80932617188,244.192489624023,0,1,faces,female,1,1,faces,P,female,VS,F,146,E05,609.087890625,1
0,1.0,0,27997,2.3046875,0.15234375,7.0,0.0,10,46,11,1060.94226074219,180.461486816406,0,1,faces,female,1,1,faces,P,female,VS,F,146,E05,609.087890625,1
0,1.0,0,27998,2.51171875,0.19140625,8.0,0.0,13,57,12,1156.42797851562,353.998779296875,0,1,objects,small,1,1,faces,P,female,VS,F,146,E05,609.087890625,0
0,1.0,0,28016,1.1875,0.134765625,2.0,1.0,12,54,5,1046.90551757812,986.568298339844,0,1,faces,male,1,1,faces,P,female,VS,F,147,E05,613.287109375,1
0,1.0,0,28017,1.376953125,0.15625,3.0,1.0,14,62,6,1166.90905761719,874.9326171875,0,1,faces,female,1,1,faces,P,female,VS,F,147,E05,613.287109375,1
0,1.0,0,28018,1.59765625,0.208984375,4.0,1.0,9,41,7,978.100341796875,549.10400390625,0,1,faces,male,1,1,faces,P,female,VS,F,147,E05,613.287109375,1
0,1.0,0,28237,0.740234375,0.173828125,2.0,1.0,9,40,4,972.232238769531,431.217346191406,0,1,objects,small,1,1,objects,P,big,VS,O,154,E05,642.681640625,0
0,1.0,0,28239,1.115234375,0.2734375,3.0,1.0,13,68,6,1263.95568847656,544.017944335938,0,1,objects,big,1,1,objects,P,big,VS,O,154,E05,642.681640625,0
0,1.0,0,28264,0.455078125,0.189453125,2.0,1.0,4,29,2,861.637084960938,239.537292480469,0,1,faces,female,1,1,faces,P,male,VS,F,155,E05,646.880859375,1
0,1.0,0,28265,0.708984375,0.150390625,3.0,1.0,2,2,3,543.874084472656,239.738708496094,0,1,objects,small,1,1,faces,P,male,VS,F,155,E05,646.880859375,0
0,1.0,0,28266,0.890625,0.19140625,4.0,1.0,1,1,4,537.174865722656,142.887756347656,0,1,faces,female,1,1,faces,P,male,VS,F,155,E05,646.880859375,1
0,1.0,1,28267,1.146484375,0.16796875,5.0,0.0,6,38,5,980.019287109375,245.377700805664,0,1,faces,female,1,1,faces,P,male,VS,F,155,E05,646.880859375,1
0,1.0,0,28271,1.888671875,0.23046875,6.0,0.0,13,68,9,1252.20471191406,567.890808105469,0,1,faces,female,1,1,faces,P,male,VS,F,155,E05,646.880859375,1
0,1.0,0,28272,2.154296875,0.185546875,7.0,0.0,12,67,10,1252.57800292969,441.570556640625,0,1,faces,male,1,1,faces,P,male,VS,F,155,E05,646.880859375,1
0,1.0,0,28274,2.5703125,0.181640625,8.0,0.0,9,54,12,1023.42327880859,974.0546875,0,1,faces,male,1,1,faces,P,male,VS,F,155,E05,646.880859375,1
0,1.0,0,28275,2.806640625,0.216796875,9.0,0.0,14,72,13,1268.42822265625,975.673278808594,0,1,faces,female,1,1,faces,P,male,VS,F,155,E05,646.880859375,1
0,1.0,0,28278,3.404296875,0.154296875,11.0,0.0,3,8,16,538.080078125,858.239807128906,0,1,objects,small,1,1,faces,P,male,VS,F,155,E05,646.880859375,0
0,1.0,0,28389,0.412109375,0.15234375,2.0,1.0,2,4,2,543.478454589844,456.196319580078,0,1,objects,big,1,1,objects,P,big,VS,O,159,E05,663.677734375,0
0,1.0,0,28390,0.62109375,0.224609375,3.0,1.0,1,2,3,545.232421875,249.754623413086,0,1,objects,small,1,1,objects,P,big,VS,O,159,E05,663.677734375,0
1,1.0,0,28391,0.91015625,0.154296875,4.0,1.0,4,38,4,993.224609375,220.262191772461,0,1,faces,female,1,1,objects,P,big,VS,O,159,E05,663.677734375,1
1,1.0,0,28486,0.66015625,0.166015625,2.0,1.0,3,22,3,722.949523925781,450.675170898438,0,1,objects,big,1,1,objects,P,small,VS,O,162,E05,676.275390625,0
0,1.0,0,28487,0.89453125,0.18359375,3.0,1.0,2,7,4,519.137023925781,762.53564453125,0,1,objects,small,1,1,objects,P,small,VS,O,162,E05,676.275390625,0
0,1.0,0,28488,1.138671875,0.18359375,4.0,1.0,6,34,5,855.156005859375,741.1962890625,0,1,faces,female,1,1,objects,P,small,VS,O,162,E05,676.275390625,1
0,1.0,0,28489,1.375,0.171875,5.0,0.0,8,52,6,1074.48974609375,783.353515625,0,1,faces,male,1,1,objects,P,small,VS,O,162,E05,676.275390625,1
0,1.0,0,28490,1.58203125,0.125,6.0,0.0,9,53,7,1072.07775878906,844.962280273438,0,1,objects,small,1,1,objects,P,small,VS,O,162,E05,676.275390625,0
0,1.0,0,28492,1.91796875,0.173828125,7.0,0.0,11,69,9,1250.71362304688,636.328247070312,0,1,objects,big,1,1,objects,P,small,VS,O,162,E05,676.275390625,0
0,1.0,0,28493,2.138671875,0.123046875,8.0,0.0,14,76,10,1333.6572265625,472.642028808594,0,1,faces,female,1,1,objects,P,small,VS,O,162,E05,676.275390625,1
0,1.0,0,28755,0.662109375,0.103515625,2.0,1.0,3,8,3,525.968200683594,840.77099609375,0,1,objects,big,1,1,objects,P,small,VS,O,171,E05,714.068359375,0
1,1.0,0,28757,1.068359375,0.126953125,3.0,1.0,6,29,5,837.911376953125,205.975845336914,0,1,faces,male,1,1,objects,P,small,VS,O,171,E05,714.068359375,1
0,1.0,0,28953,0.46875,0.20703125,2.0,1.0,4,7,2,544.442749023438,783.984985351562,0,1,faces,female,1,1,faces,P,female,VS,F,178,E05,743.462890625,1
0,1.0,0,29051,1.115234375,0.298828125,2.0,1.0,7,24,4,736.138854980469,673.300842285156,0,1,faces,male,1,1,objects,P,small,VS,O,181,E05,756.060546875,1
0,1.0,0,29108,0.888671875,0.12109375,2.0,1.0,13,58,4,1131.11010742188,449.787017822266,0,1,objects,big,1,1,faces,P,female,VS,I,183,E05,764.458984375,0
0,1.0,0,29109,1.041015625,0.162109375,3.0,1.0,10,49,5,1073.28637695312,462.782562255859,0,1,faces,female,1,1,faces,P,female,VS,I,183,E05,764.458984375,1
0,1.0,1,29162,0.404296875,0.115234375,2.0,1.0,3,16,2,648.960021972656,704.514892578125,0,1,faces,male,1,1,faces,P,female,VS,F,185,E05,772.857421875,1
0,1.0,0,29169,1.81640625,0.15625,4.0,1.0,9,47,9,1064.51684570312,254.822998046875,0,1,faces,female,1,1,faces,P,female,VS,F,185,E05,772.857421875,1
0,1.0,0,29170,2.03515625,0.216796875,5.0,0.0,6,28,10,838.194030761719,177.388687133789,0,1,faces,male,1,1,faces,P,female,VS,F,185,E05,772.857421875,1
0,1.0,0,29195,0.611328125,0.166015625,2.0,1.0,14,77,3,1375.22473144531,568.457885742188,0,1,objects,small,1,1,objects,P,big,VS,O,186,E05,777.056640625,0
0,1.0,0,29229,1.220703125,0.185546875,2.0,1.0,10,39,6,951.689086914062,352.491241455078,0,1,faces,male,1,1,faces,P,female,VS,I,187,E05,781.255859375,1
0,1.0,0,29230,1.46484375,0.1171875,3.0,1.0,7,22,7,747.546813964844,425.703155517578,0,1,objects,big,1,1,faces,P,female,VS,I,187,E05,781.255859375,0
0,1.0,0,29253,0.51953125,0.169921875,2.0,1.0,13,49,2,1055.93969726562,444.665618896484,0,1,objects,big,1,1,objects,P,big,VS,O,188,E05,785.455078125,0
0,1.0,0,29283,0.392578125,0.11328125,2.0,1.0,6,33,2,865.376770019531,655.544067382812,0,1,objects,small,1,1,faces,P,female,VS,I,189,E05,789.654296875,0
0,1.0,1,29284,0.57421875,0.19140625,3.0,1.0,4,20,3,754.249938964844,273.970642089844,0,1,faces,female,1,1,faces,P,female,VS,I,189,E05,789.654296875,1
1,1.0,0,29286,0.90234375,0.181640625,4.0,1.0,7,37,5,949.448181152344,181.327575683594,0,1,faces,male,1,1,faces,P,female,VS,I,189,E05,789.654296875,1
0,1.0,0,29287,1.1484375,0.212890625,5.0,0.0,15,73,6,1336.35998535156,187.732727050781,0,1,faces,male,1,1,faces,P,female,VS,I,189,E05,789.654296875,1
0,1.0,0,29792,0.427734375,0.212890625,2.0,1.0,1,3,2,558.883666992188,367.034484863281,0,1,faces,female,1,1,faces,P,female,VS,I,207,E05,865.240234375,1
0,1.0,0,29793,0.705078125,0.27734375,3.0,1.0,5,39,3,994.338134765625,332.347351074219,0,1,objects,big,1,1,faces,P,female,VS,I,207,E05,865.240234375,0
0,1.0,1,29796,1.423828125,0.17578125,4.0,1.0,7,43,6,917.134460449219,762.581237792969,0,1,faces,male,1,1,faces,P,female,VS,I,207,E05,865.240234375,1
0,1.0,0,29797,1.650390625,0.2265625,5.0,0.0,11,53,7,1033.68908691406,868.630920410156,0,1,faces,female,1,1,faces,P,female,VS,I,207,E05,865.240234375,1
0,1.0,0,29800,2.181640625,0.103515625,6.0,0.0,13,69,10,1240.99743652344,651.034790039062,0,1,faces,female,1,1,faces,P,female,VS,I,207,E05,865.240234375,1
1,1.0,0,23603,0.375,0.1328125,2.0,1.0,5,41,2,950.95361328125,572.575927734375,0,1,faces,male,1,1,objects,P,big,VS,O,2,E12,4.400390625,1
0,1.0,0,23605,0.716796875,0.1171875,3.0,1.0,2,10,4,626.920715332031,130.689559936523,0,1,faces,male,1,1,objects,P,big,VS,O,2,E12,4.400390625,1
0,1.0,0,23607,1.037109375,0.203125,4.0,1.0,1,5,6,542.168212890625,535.508850097656,0,1,objects,big,1,1,objects,P,big,VS,O,2,E12,4.400390625,0
0,1.0,0,23608,1.3125,0.291015625,5.0,0.0,3,25,7,768.621398925781,745.078674316406,0,1,objects,small,1,1,objects,P,big,VS,O,2,E12,4.400390625,0
0,1.0,1,23609,1.6875,0.109375,6.0,0.0,15,80,8,1330.06359863281,816.8525390625,0,1,objects,big,1,1,objects,P,big,VS,O,2,E12,4.400390625,0
0,1.0,0,23612,2.380859375,0.146484375,7.0,0.0,13,66,11,1255.697265625,332.087005615234,0,1,objects,small,1,1,objects,P,big,VS,O,2,E12,4.400390625,0
0,1.0,1,23616,3.046875,0.173828125,8.0,0.0,7,43,15,967.951538085938,736.072448730469,0,1,faces,female,1,1,objects,P,big,VS,O,2,E12,4.400390625,1
0,1.0,1,23743,0.712890625,0.15234375,2.0,1.0,2,8,4,585.116333007812,849.222534179688,0,1,faces,female,1,1,faces,P,male,VS,I,6,E12,21.197265625,1
0,1.0,0,23745,1.18359375,0.130859375,3.0,1.0,8,44,6,959.110961914062,853.197875976562,0,1,faces,female,1,1,faces,P,male,VS,I,6,E12,21.197265625,1
0,1.0,0,23746,1.3671875,0.123046875,4.0,1.0,10,52,7,1051.18115234375,763.402893066406,0,1,faces,female,1,1,faces,P,male,VS,I,6,E12,21.197265625,1
0,1.0,0,23747,1.525390625,0.134765625,5.0,0.0,11,53,8,1061.14245605469,812.830200195312,0,1,faces,male,1,1,faces,P,male,VS,I,6,E12,21.197265625,1
0,1.0,1,23750,2.072265625,0.123046875,7.0,0.0,9,48,11,1071.07702636719,324.787384033203,0,1,faces,male,1,1,faces,P,male,VS,I,6,E12,21.197265625,1
0,1.0,0,23776,0.478515625,0.10546875,2.0,1.0,6,16,2,683.768981933594,745.251281738281,0,1,faces,male,1,1,objects,P,big,VS,O,7,E12,25.396484375,1
0,1.0,0,23777,0.67578125,0.142578125,3.0,1.0,2,2,3,525.857238769531,248.86344909668,0,1,faces,male,1,1,objects,P,big,VS,O,7,E12,25.396484375,1
0,1.0,0,23778,0.87890625,0.16796875,4.0,1.0,3,4,4,555.605895996094,435.438903808594,0,1,objects,big,1,1,objects,P,big,VS,O,7,E12,25.396484375,0
0,1.0,0,23779,1.0859375,0.126953125,5.0,0.0,4,5,5,550.506652832031,521.604248046875,0,1,faces,female,1,1,objects,P,big,VS,O,7,E12,25.396484375,1
0,1.0,0,23780,1.306640625,0.203125,6.0,0.0,15,80,6,1325.34313964844,799.473754882812,0,1,faces,male,1,1,objects,P,big,VS,O,7,E12,25.396484375,1
0,1.0,0,23781,1.55078125,0.22265625,7.0,0.0,12,71,7,1235.59448242188,830.570678710938,0,1,objects,small,1,1,objects,P,big,VS,O,7,E12,25.396484375,0
0,1.0,0,23909,0.658203125,0.158203125,2.0,1.0,9,55,3,1146.29382324219,116.961585998535,0,1,faces,female,1,1,faces,P,female,VS,I,11,E12,42.193359375,1
0,1.0,0,23910,0.96484375,0.169921875,3.0,1.0,4,29,4,864.352844238281,221.354904174805,0,1,faces,male,1,1,faces,P,female,VS,I,11,E12,42.193359375,1
0,1.0,0,23911,1.208984375,0.142578125,4.0,1.0,10,57,5,1151.255859375,335.504547119141,0,1,faces,male,1,1,faces,P,female,VS,I,11,E12,42.193359375,1
0,1.0,1,23914,1.771484375,0.11328125,5.0,0.0,13,69,8,1252.61499023438,633.473571777344,0,1,faces,female,1,1,faces,P,female,VS,I,11,E12,42.193359375,1
0,1.0,0,23915,1.94921875,0.1328125,6.0,0.0,11,62,9,1163.8876953125,852.422119140625,0,1,faces,male,1,1,faces,P,female,VS,I,11,E12,42.193359375,1
0,1.0,0,23916,2.123046875,0.228515625,7.0,0.0,12,63,10,1132.421875,931.946716308594,0,1,faces,female,1,1,faces,P,female,VS,I,11,E12,42.193359375,1
0,1.0,0,23918,2.603515625,0.134765625,8.0,0.0,2,15,12,690.947082519531,601.846923828125,0,1,faces,female,1,1,faces,P,female,VS,I,11,E12,42.193359375,1
0,1.0,0,24063,0.84765625,0.1640625,2.0,1.0,7,27,4,744.678039550781,919.887268066406,0,1,faces,male,1,1,faces,P,female,VS,F,16,E12,63.189453125,1
0,1.0,0,24064,1.08203125,0.1953125,3.0,1.0,10,54,5,1036.07946777344,934.48291015625,0,1,faces,female,1,1,faces,P,female,VS,F,16,E12,63.189453125,1
0,1.0,0,24066,1.609375,0.205078125,4.0,1.0,11,60,7,1163.83654785156,637.307800292969,0,1,faces,female,1,1,faces,P,female,VS,F,16,E12,63.189453125,1
0,1.0,0,24152,1.33203125,0.189453125,2.0,1.0,4,31,6,830.2451171875,465.251403808594,0,1,objects,small,1,1,faces,P,female,VS,F,19,E12,75.787109375,0
0,1.0,0,24153,1.560546875,0.140625,3.0,1.0,5,32,7,833.185180664062,537.804870605469,0,1,faces,male,1,1,faces,P,female,VS,F,19,E12,75.787109375,1
0,1.0,0,24155,1.904296875,0.19140625,4.0,1.0,2,7,9,534.491333007812,733.076110839844,0,1,faces,female,1,1,faces,P,female,VS,F,19,E12,75.787109375,1
0,1.0,0,24279,0.677734375,0.146484375,2.0,1.0,11,46,4,1075.67370605469,133.649978637695,0,1,faces,female,1,1,faces,P,female,VS,I,23,E12,92.583984375,1
0,1.0,0,24782,0.703125,0.14453125,2.0,1.0,5,28,4,857.823974609375,158.98974609375,0,1,objects,big,1,1,faces,P,female,VS,I,39,E12,159.771484375,0
0,1.0,0,24783,0.94140625,0.197265625,3.0,1.0,1,19,5,730.576782226562,114.305801391602,0,1,faces,female,1,1,faces,P,female,VS,I,39,E12,159.771484375,1
0,1.0,0,24784,1.216796875,0.193359375,4.0,1.0,8,47,6,1055.89306640625,226.781311035156,0,1,faces,female,1,1,faces,P,female,VS,I,39,E12,159.771484375,1
0,1.0,0,24785,1.4765625,0.197265625,5.0,0.0,9,58,7,1163.15844726562,417.439575195312,0,1,faces,male,1,1,faces,P,female,VS,I,39,E12,159.771484375,1
0,1.0,0,24788,2.037109375,0.134765625,6.0,0.0,11,62,10,1183.21118164062,842.55908203125,0,1,objects,big,1,1,faces,P,female,VS,I,39,E12,159.771484375,0
0,1.0,1,24789,2.3046875,0.18359375,7.0,0.0,13,70,11,1276.34729003906,725.046264648438,0,1,faces,female,1,1,faces,P,female,VS,I,39,E12,159.771484375,1
0,1.0,0,24879,0.4140625,0.251953125,2.0,1.0,11,57,2,1167.67639160156,327.528778076172,0,1,faces,male,1,1,faces,P,female,VS,I,42,E12,172.369140625,1
0,1.0,1,24880,0.720703125,0.123046875,3.0,1.0,12,73,3,1359.65808105469,181.695755004883,0,1,faces,male,1,1,faces,P,female,VS,I,42,E12,172.369140625,1
0,1.0,0,24882,1.056640625,0.138671875,4.0,1.0,13,74,5,1352.99719238281,229.786834716797,0,1,faces,female,1,1,faces,P,female,VS,I,42,E12,172.369140625,1
0,1.0,1,24883,1.28125,0.1640625,5.0,0.0,14,79,6,1362.40625,740.794799804688,0,1,faces,male,1,1,faces,P,female,VS,I,42,E12,172.369140625,1
0,1.0,0,24885,1.685546875,0.18359375,6.0,0.0,7,35,8,861.198608398438,824.056457519531,0,1,faces,female,1,1,faces,P,female,VS,I,42,E12,172.369140625,1
0,1.0,1,24886,1.908203125,0.185546875,7.0,0.0,9,44,9,936.177551269531,823.331909179688,0,1,faces,female,1,1,faces,P,female,VS,I,42,E12,172.369140625,1
0,1.0,0,24890,2.607421875,0.185546875,8.0,0.0,1,1,13,527.343811035156,109.819625854492,0,1,objects,big,1,1,faces,P,female,VS,I,42,E12,172.369140625,0
0,1.0,0,24908,0.505859375,0.18359375,2.0,1.0,6,33,2,832.50390625,657.89794921875,0,1,faces,female,1,1,faces,P,female,VS,F,43,E12,176.568359375,1
0,1.0,0,24909,0.76171875,0.205078125,3.0,1.0,10,60,3,1158.80688476562,655.806335449219,0,1,faces,male,1,1,faces,P,female,VS,F,43,E12,176.568359375,1
0,1.0,0,24910,1.046875,0.166015625,4.0,1.0,5,27,4,739.528137207031,920.530151367188,0,1,faces,male,1,1,faces,P,female,VS,F,43,E12,176.568359375,1
0,1.0,1,24913,1.697265625,0.15625,5.0,0.0,9,56,7,1113.65075683594,223.690460205078,0,1,faces,female,1,1,faces,P,female,VS,F,43,E12,176.568359375,1
0,1.0,0,24915,1.994140625,0.259765625,6.0,0.0,8,47,9,1053.16320800781,228.592086791992,0,1,faces,male,1,1,faces,P,female,VS,F,43,E12,176.568359375,1
0,1.0,0,24916,2.30078125,0.115234375,7.0,0.0,7,38,10,957.2373046875,236.585952758789,0,1,objects,small,1,1,faces,P,female,VS,F,43,E12,176.568359375,0
0,1.0,1,24917,2.4921875,0.1015625,8.0,0.0,15,74,11,1321.28881835938,231.038803100586,0,1,faces,female,1,1,faces,P,female,VS,F,43,E12,176.568359375,1
0,1.0,0,24920,2.984375,0.21875,9.0,0.0,1,12,14,639.288391113281,334.858489990234,0,1,faces,female,1,1,faces,P,female,VS,F,43,E12,176.568359375,1
0,1.0,0,25044,1.0546875,0.142578125,2.0,1.0,2,14,6,648.480895996094,573.21630859375,0,1,faces,female,1,1,faces,P,male,VS,I,48,E12,197.564453125,1
0,1.0,0,25046,1.40625,0.1328125,3.0,1.0,6,36,8,838.085998535156,916.590270996094,0,1,objects,big,1,1,faces,P,male,VS,I,48,E12,197.564453125,0
0,1.0,0,25047,1.619140625,0.146484375,4.0,1.0,15,80,9,1328.30981445312,825.320129394531,0,1,faces,male,1,1,faces,P,male,VS,I,48,E12,197.564453125,1
0,1.0,0,25048,1.80859375,0.15234375,5.0,0.0,13,71,10,1251.14013671875,816.149475097656,0,1,faces,male,1,1,faces,P,male,VS,I,48,E12,197.564453125,1
0,1.0,0,25051,2.37890625,0.208984375,6.0,0.0,11,59,13,1155.13598632812,524.250671386719,0,1,faces,female,1,1,faces,P,male,VS,I,48,E12,197.564453125,1
0,1.0,1,25066,1.2109375,0.126953125,2.0,1.0,4,17,3,673.106140136719,851.06298828125,0,1,faces,female,1,1,faces,P,male,VS,F,49,E12,201.763671875,1
0,1.0,0,25070,1.880859375,0.23046875,3.0,1.0,12,64,7,1231.10412597656,132.267959594727,0,1,faces,male,1,1,faces,P,male,VS,F,49,E12,201.763671875,1
0,1.0,0,25072,2.337890625,0.18359375,4.0,1.0,14,75,9,1328.06420898438,354.569183349609,0,1,faces,male,1,1,faces,P,male,VS,F,49,E12,201.763671875,1
0,1.0,1,25087,0.822265625,0.1171875,2.0,1.0,14,70,4,1267.67443847656,770.330017089844,0,1,objects,big,1,1,objects,P,small,VS,O,50,E12,205.962890625,0
0,1.0,1,25136,0.4453125,0.15234375,2.0,1.0,3,17,2,618.932983398438,805.88525390625,0,1,faces,female,1,1,faces,P,female,VS,I,52,E12,214.361328125,1
0,1.0,1,25138,0.771484375,0.123046875,3.0,1.0,7,35,4,821.90869140625,824.019592285156,0,1,faces,female,1,1,faces,P,female,VS,I,52,E12,214.361328125,1
0,1.0,0,25140,1.248046875,0.23828125,4.0,1.0,12,62,6,1162.54418945312,818.766540527344,0,1,faces,male,1,1,faces,P,female,VS,I,52,E12,214.361328125,1
1,1.0,1,25141,1.541015625,0.103515625,5.0,0.0,14,78,7,1313.71716308594,653.447814941406,0,1,faces,female,1,1,faces,P,female,VS,I,52,E12,214.361328125,1
0,1.0,0,25143,1.830078125,0.146484375,6.0,0.0,13,69,9,1265.11254882812,611.982971191406,0,1,faces,male,1,1,faces,P,female,VS,I,52,E12,214.361328125,1
0,1.0,0,25255,0.80078125,0.126953125,2.0,1.0,1,6,5,608.015930175781,686.698181152344,0,1,faces,female,1,1,objects,P,big,VS,O,56,E12,231.158203125,1
0,1.0,1,25256,1.05078125,0.158203125,3.0,1.0,2,15,6,674.028442382812,602.31396484375,0,1,objects,small,1,1,objects,P,big,VS,O,56,E12,231.158203125,0
0,1.0,1,25258,1.392578125,0.140625,4.0,1.0,13,71,8,1232.78564453125,811.347595214844,0,1,faces,female,1,1,objects,P,big,VS,O,56,E12,231.158203125,1
0,1.0,0,25261,1.9453125,0.1953125,5.0,0.0,11,60,11,1160.54724121094,612.447387695312,0,1,objects,big,1,1,objects,P,big,VS,O,56,E12,231.158203125,0
0,1.0,0,25262,2.22265625,0.40234375,6.0,0.0,7,42,12,971.475952148438,611.390197753906,0,1,objects,small,1,1,objects,P,big,VS,O,56,E12,231.158203125,0
