refix,pretarget,multifix,urevent,tonset,dur_added,rank,first_rank,stposrel,stposabs,n,x,y,istarget,isdistractor,distractor_cat,ditractor_atr,trial_targetseen,trial_correct,trial_cat,trial_resp,trial_atr,trial_type,trial_cattype,trial_number,trial_subject,trial_bgn_latency,VSNTpre_VSNTpost
0,0.0,0,23205,0.728515625,0.2109375,2.0,1.0,10,37,3,931.817810058594,173.893768310547,0,1,faces,female,0,1,faces,A,female,VS,I,1,E01,0.201171875,0
0,0.0,0,23206,0.978515625,0.283203125,3.0,1.0,12,46,4,1039.55004882812,174.363265991211,0,1,faces,female,0,1,faces,A,female,VS,I,1,E01,0.201171875,0
0,0.0,0,23207,1.328125,0.119140625,4.0,1.0,8,29,5,847.283508300781,264.328094482422,0,1,objects,big,0,1,faces,A,female,VS,I,1,E01,0.201171875,0
0,0.0,1,23208,1.525390625,0.125,5.0,0.0,2,4,6,578.883605957031,470.820007324219,0,1,objects,small,0,1,faces,A,female,VS,I,1,E01,0.201171875,0
0,0.0,0,23210,1.849609375,0.1875,6.0,0.0,3,6,8,537.387268066406,657.476989746094,0,1,faces,male,0,1,faces,A,female,VS,I,1,E01,0.201171875,0
0,0.0,0,23211,2.12109375,0.32421875,7.0,0.0,5,14,9,630.10888671875,566.516174316406,0,1,faces,female,0,1,faces,A,female,VS,I,1,E01,0.201171875,0
0,0.0,0,23212,2.51171875,0.181640625,8.0,0.0,9,33,10,843.626159667969,640.465576171875,0,1,faces,female,0,1,faces,A,female,VS,I,1,E01,0.201171875,0
0,0.0,0,23213,2.755859375,0.162109375,9.0,0.0,6,15,11,659.109191894531,663.839721679688,0,1,faces,male,0,1,faces,A,female,VS,I,1,E01,0.201171875,0
0,0.0,0,23214,2.986328125,0.1796875,10.0,0.0,7,17,12,642.648620605469,851.225952148438,0,1,faces,male,0,1,faces,A,female,VS,I,1,E01,0.201171875,0
0,0.0,0,23215,3.234375,0.248046875,11.0,0.0,11,45,13,947.062744140625,938.388244628906,0,1,faces,male,0,1,faces,A,female,VS,I,1,E01,0.201171875,0
0,0.0,0,23216,3.546875,0.193359375,12.0,0.0,13,52,14,1017.26153564453,754.981384277344,0,1,faces,male,0,1,faces,A,female,VS,I,1,E01,0.201171875,0
0,0.0,0,23217,3.806640625,0.2109375,13.0,0.0,15,80,15,1319.58935546875,826.356567382812,0,1,objects,big,0,1,faces,A,female,VS,I,1,E01,0.201171875,0
0,1.0,0,23231,1.0390625,0.138671875,2.0,1.0,8,47,5,1057.07434082031,247.931503295898,0,1,faces,male,1,1,objects,P,big,VS,O,2,E01,4.400390625,1
0,1.0,1,23232,1.240234375,0.119140625,3.0,1.0,13,66,6,1257.83056640625,296.270446777344,0,1,objects,small,1,1,objects,P,big,VS,O,2,E01,4.400390625,1
0,1.0,0,23236,1.978515625,0.126953125,5.0,0.0,6,42,10,946.085388183594,658.045654296875,0,1,faces,female,1,1,objects,P,big,VS,O,2,E01,4.400390625,1
0,1.0,0,23277,0.6484375,0.26953125,2.0,1.0,9,55,3,1180.07849121094,184.82373046875,0,1,faces,male,1,1,objects,P,small,VS,O,4,E01,12.798828125,1
0,1.0,0,23278,0.9375,0.125,3.0,1.0,10,56,4,1159.45556640625,191.059768676758,0,1,objects,small,1,1,objects,P,small,VS,O,4,E01,12.798828125,1
0,1.0,1,23279,1.109375,0.162109375,4.0,1.0,8,47,5,1093.4130859375,274.922119140625,0,1,objects,big,1,1,objects,P,small,VS,O,4,E01,12.798828125,1
0,1.0,1,23324,0.705078125,0.201171875,2.0,1.0,6,29,3,860.457824707031,246.168701171875,0,1,faces,male,1,1,faces,P,male,VS,I,6,E01,21.197265625,1
0,0.0,0,23371,0.7890625,0.1796875,2.0,1.0,3,20,4,772.734375,232.931350708008,0,1,objects,small,0,1,faces,P,male,VS,F,8,E01,29.595703125,0
0,0.0,0,23372,1.03125,0.158203125,3.0,1.0,8,38,5,945.442443847656,249.06689453125,0,1,faces,male,0,1,faces,P,male,VS,F,8,E01,29.595703125,0
0,0.0,0,23373,1.232421875,0.208984375,4.0,1.0,9,39,6,931.935485839844,357.719635009766,0,1,faces,female,0,1,faces,P,male,VS,F,8,E01,29.595703125,0
0,0.0,0,23374,1.49609375,0.201171875,5.0,0.0,5,31,7,853.252563476562,433.918579101562,0,1,faces,male,0,1,faces,P,male,VS,F,8,E01,29.595703125,0
0,0.0,0,23375,1.7734375,0.1484375,6.0,0.0,2,15,8,667.306823730469,672.274658203125,0,1,objects,big,0,1,faces,P,male,VS,F,8,E01,29.595703125,0
0,0.0,0,23376,1.990234375,0.185546875,7.0,0.0,1,8,9,531.399841308594,872.658325195312,0,1,faces,female,0,1,faces,P,male,VS,F,8,E01,29.595703125,0
0,0.0,0,23377,2.2421875,0.208984375,8.0,0.0,7,36,10,874.165893554688,940.174865722656,0,1,faces,female,0,1,faces,P,male,VS,F,8,E01,29.595703125,0
0,0.0,0,23380,2.759765625,0.107421875,10.0,0.0,12,63,13,1141.40393066406,935.594665527344,0,1,faces,male,0,1,faces,P,male,VS,F,8,E01,29.595703125,0
0,0.0,0,23381,2.93359375,0.166015625,11.0,0.0,14,70,14,1272.45288085938,712.997009277344,0,1,faces,male,0,1,faces,P,male,VS,F,8,E01,29.595703125,0
0,0.0,1,23416,0.884765625,0.15625,2.0,1.0,4,11,4,643.376037597656,243.527679443359,0,1,faces,male,0,1,faces,A,male,VS,I,10,E01,37.994140625,0
0,0.0,0,23418,1.291015625,0.17578125,3.0,1.0,7,22,6,750.412353515625,423.906799316406,0,1,objects,small,0,1,faces,A,male,VS,I,10,E01,37.994140625,0
0,0.0,0,23419,1.505859375,0.23046875,4.0,1.0,9,31,7,849.890441894531,442.05224609375,0,1,faces,male,0,1,faces,A,male,VS,I,10,E01,37.994140625,0
0,0.0,0,23420,1.80078125,0.18359375,5.0,0.0,6,15,8,617.383117675781,608.026489257812,0,1,objects,big,0,1,faces,A,male,VS,I,10,E01,37.994140625,0
0,0.0,0,23421,2.048828125,0.2265625,6.0,0.0,1,7,9,541.074951171875,755.261596679688,0,1,faces,male,0,1,faces,A,male,VS,I,10,E01,37.994140625,0
0,0.0,1,23422,2.318359375,0.265625,7.0,0.0,2,8,10,542.432556152344,840.93603515625,0,1,faces,male,0,1,faces,A,male,VS,I,10,E01,37.994140625,0
0,0.0,0,23425,2.99609375,0.234375,8.0,0.0,10,43,13,950.592956542969,752.987609863281,0,1,faces,male,0,1,faces,A,male,VS,I,10,E01,37.994140625,0
0,0.0,0,23426,3.29296875,0.150390625,9.0,0.0,13,61,14,1141.02416992188,748.578430175781,0,1,faces,female,0,1,faces,A,male,VS,I,10,E01,37.994140625,0
0,0.0,0,23427,3.50390625,0.130859375,10.0,0.0,15,71,15,1246.46472167969,835.325561523438,0,1,faces,female,0,1,faces,A,male,VS,I,10,E01,37.994140625,0
0,0.0,0,23429,3.875,0.224609375,11.0,0.0,14,67,17,1230.85424804688,443.009399414062,0,1,faces,female,0,1,faces,A,male,VS,I,10,E01,37.994140625,0
0,1.0,0,23451,0.650390625,0.208984375,2.0,1.0,8,39,3,970.197814941406,349.411865234375,0,1,faces,female,1,1,faces,P,female,VS,I,11,E01,42.193359375,1
0,1.0,0,23454,2.546875,0.22265625,4.0,1.0,2,15,6,651.507019042969,624.505432128906,0,1,faces,female,1,1,faces,P,female,VS,I,11,E01,42.193359375,1
1,0.0,0,23471,0.40234375,0.13671875,2.0,1.0,1,2,2,588.577453613281,268.198089599609,0,1,objects,small,0,1,objects,A,big,VS,O,12,E01,46.392578125,0
0,0.0,0,23472,0.59765625,0.18359375,3.0,1.0,5,21,3,741.086242675781,326.008636474609,0,1,objects,big,0,1,objects,A,big,VS,O,12,E01,46.392578125,0
0,0.0,0,23474,1.03515625,0.189453125,5.0,0.0,6,24,5,722.57080078125,620.115417480469,0,1,faces,female,0,1,objects,A,big,VS,O,12,E01,46.392578125,0
0,0.0,0,23476,1.423828125,0.134765625,6.0,0.0,11,43,7,943.157775878906,730.622253417969,0,1,objects,big,0,1,objects,A,big,VS,O,12,E01,46.392578125,0
0,0.0,0,23477,1.623046875,0.16015625,7.0,0.0,7,26,8,760.855102539062,871.856140136719,0,1,faces,male,0,1,objects,A,big,VS,O,12,E01,46.392578125,0
0,0.0,0,23478,1.8203125,0.126953125,8.0,0.0,8,27,9,738.116943359375,945.897766113281,0,1,faces,male,0,1,objects,A,big,VS,O,12,E01,46.392578125,0
1,0.0,0,23480,2.16015625,0.1640625,9.0,0.0,3,5,11,532.274963378906,549.734741210938,0,1,objects,big,0,1,objects,A,big,VS,O,12,E01,46.392578125,0
0,0.0,0,23482,2.560546875,0.20703125,10.0,0.0,13,49,13,1038.00622558594,438.267791748047,0,1,faces,male,0,1,objects,A,big,VS,O,12,E01,46.392578125,0
0,0.0,0,23484,3.052734375,0.20703125,12.0,0.0,14,64,15,1253.61547851562,174.698928833008,0,1,faces,male,0,1,objects,A,big,VS,O,12,E01,46.392578125,0
0,1.0,0,23501,0.494140625,0.23828125,2.0,1.0,7,36,2,836.276062011719,914.621887207031,0,1,faces,female,1,1,faces,P,female,VS,I,13,E01,50.591796875,1
0,1.0,0,23502,0.791015625,0.21875,3.0,1.0,10,45,3,975.994323730469,924.290161132812,0,1,faces,male,1,1,faces,P,female,VS,I,13,E01,50.591796875,1
0,1.0,0,23504,1.1640625,0.232421875,4.0,1.0,14,70,5,1257.38354492188,733.79736328125,0,1,faces,male,1,1,faces,P,female,VS,I,13,E01,50.591796875,1
0,1.0,1,23505,1.470703125,0.125,5.0,0.0,9,41,6,991.379638671875,574.542663574219,0,1,faces,male,1,1,faces,P,female,VS,I,13,E01,50.591796875,1
0,1.0,0,23507,1.748046875,0.205078125,6.0,0.0,6,31,8,823.977783203125,453.493743896484,0,1,faces,male,1,1,faces,P,female,VS,I,13,E01,50.591796875,1
0,1.0,0,23508,1.9921875,0.154296875,7.0,0.0,5,22,9,745.563171386719,443.23046875,0,1,faces,male,1,1,faces,P,female,VS,I,13,E01,50.591796875,1
0,0.0,0,23527,0.84375,0.15234375,2.0,1.0,3,13,4,660.091369628906,450.213439941406,0,1,objects,small,0,1,objects,A,small,VS,O,14,E01,54.791015625,0
0,0.0,0,23529,1.310546875,0.220703125,3.0,1.0,12,62,6,1135.72314453125,791.114562988281,0,1,faces,female,0,1,objects,A,small,VS,O,14,E01,54.791015625,0
1,0.0,0,23530,1.58203125,0.310546875,4.0,1.0,11,60,7,1170.88000488281,642.595764160156,0,1,objects,small,0,1,objects,A,small,VS,O,14,E01,54.791015625,0
0,0.0,0,23534,2.55859375,0.2421875,6.0,0.0,13,75,11,1375.09521484375,383.854400634766,0,1,faces,male,0,1,objects,A,small,VS,O,14,E01,54.791015625,0
0,0.0,0,23535,2.861328125,0.171875,7.0,0.0,14,77,12,1384.63696289062,568.650146484375,0,1,faces,male,0,1,objects,A,small,VS,O,14,E01,54.791015625,0
0,0.0,0,23536,3.099609375,0.169921875,8.0,0.0,15,79,13,1366.3251953125,745.466857910156,0,1,objects,small,0,1,objects,A,small,VS,O,14,E01,54.791015625,0
0,0.0,1,23537,3.34765625,0.15625,9.0,0.0,9,39,14,940.044250488281,386.930358886719,0,1,objects,big,0,1,objects,A,small,VS,O,14,E01,54.791015625,0
0,1.0,0,23583,0.53125,0.130859375,2.0,1.0,5,19,2,727.278015136719,161.494171142578,0,1,objects,big,1,1,faces,P,female,VS,F,16,E01,63.189453125,1
0,1.0,0,23584,0.751953125,0.185546875,3.0,1.0,9,42,3,918.923583984375,620.752685546875,0,1,faces,male,1,1,faces,P,female,VS,F,16,E01,63.189453125,1
0,1.0,0,23587,1.453125,0.138671875,5.0,0.0,15,78,6,1372.40673828125,629.021423339844,0,1,faces,male,1,1,faces,P,female,VS,F,16,E01,63.189453125,1
0,0.0,0,23589,2.86328125,0.248046875,7.0,0.0,11,60,8,1165.45458984375,638.065246582031,0,1,faces,female,1,1,faces,P,female,VS,F,16,E01,63.189453125,0
0,0.0,0,23601,0.517578125,0.1953125,2.0,1.0,1,6,2,527.56396484375,644.316711425781,0,1,faces,male,0,1,faces,A,female,VS,F,17,E01,67.388671875,0
0,0.0,1,23602,0.78125,0.185546875,3.0,1.0,3,9,3,546.931945800781,893.284851074219,0,1,faces,male,0,1,faces,A,female,VS,F,17,E01,67.388671875,0
0,0.0,0,23604,1.267578125,0.212890625,4.0,1.0,11,72,5,1308.439453125,952.881286621094,0,1,faces,male,0,1,faces,A,female,VS,F,17,E01,67.388671875,0
0,0.0,0,23605,1.517578125,0.10546875,5.0,0.0,15,81,6,1358.93603515625,958.05224609375,0,1,faces,female,0,1,faces,A,female,VS,F,17,E01,67.388671875,0
0,0.0,1,23606,1.6953125,0.119140625,6.0,0.0,9,51,7,1099.21630859375,673.409362792969,0,1,objects,small,0,1,faces,A,female,VS,F,17,E01,67.388671875,0
0,0.0,1,23608,2.01171875,0.1875,7.0,0.0,8,50,9,1039.30017089844,565.556335449219,0,1,faces,female,0,1,faces,A,female,VS,F,17,E01,67.388671875,0
0,0.0,0,23610,2.41796875,0.103515625,8.0,0.0,5,32,11,844.286865234375,560.245422363281,0,1,faces,male,0,1,faces,A,female,VS,F,17,E01,67.388671875,0
0,0.0,0,23613,2.90234375,0.1171875,9.0,0.0,14,76,14,1356.41259765625,464.9814453125,0,1,faces,female,0,1,faces,A,female,VS,F,17,E01,67.388671875,0
0,0.0,1,23614,3.072265625,0.201171875,10.0,0.0,13,74,15,1322.21691894531,250.620544433594,0,1,faces,male,0,1,faces,A,female,VS,F,17,E01,67.388671875,0
0,0.0,0,23617,3.6796875,0.224609375,11.0,0.0,7,47,18,1071.34924316406,261.294403076172,0,1,faces,female,0,1,faces,A,female,VS,F,17,E01,67.388671875,0
0,1.0,0,23631,0.9140625,0.232421875,2.0,1.0,14,65,5,1306.125,260.96142578125,0,1,faces,female,1,1,faces,P,female,VS,F,18,E01,71.587890625,1
0,1.0,0,23632,1.21484375,0.1953125,3.0,1.0,10,48,6,1050.69494628906,333.514739990234,0,1,faces,female,1,1,faces,P,female,VS,F,18,E01,71.587890625,1
0,1.0,0,23633,1.478515625,0.212890625,4.0,1.0,9,41,7,983.602722167969,521.846862792969,0,1,faces,male,1,1,faces,P,female,VS,F,18,E01,71.587890625,1
0,1.0,0,23634,1.7578125,0.1484375,5.0,0.0,6,24,8,803.429565429688,608.787231445312,0,1,objects,big,1,1,faces,P,female,VS,F,18,E01,71.587890625,1
0,1.0,1,23636,2.025390625,0.203125,6.0,0.0,2,14,10,656.049682617188,494.143188476562,0,1,faces,female,1,1,faces,P,female,VS,F,18,E01,71.587890625,1
0,1.0,0,23638,2.421875,0.154296875,7.0,0.0,7,26,12,743.507019042969,868.391235351562,0,1,faces,female,1,1,faces,P,female,VS,F,18,E01,71.587890625,1
0,0.0,0,23674,0.732421875,0.12109375,2.0,1.0,2,2,4,540.444946289062,267.648864746094,0,1,faces,male,0,1,faces,A,male,VS,F,20,E01,79.986328125,0
0,0.0,0,23675,0.921875,0.275390625,3.0,1.0,11,30,5,834.882080078125,330.792907714844,0,1,objects,big,0,1,faces,A,male,VS,F,20,E01,79.986328125,0
0,0.0,1,23677,1.390625,0.205078125,4.0,1.0,7,20,7,744.027465820312,282.831604003906,0,1,faces,male,0,1,faces,A,male,VS,F,20,E01,79.986328125,0
0,0.0,0,23679,1.8359375,0.201171875,5.0,0.0,14,65,9,1243.76916503906,277.447387695312,0,1,faces,female,0,1,faces,A,male,VS,F,20,E01,79.986328125,0
0,0.0,0,23680,2.107421875,0.197265625,6.0,0.0,15,67,10,1264.89709472656,462.859771728516,0,1,faces,male,0,1,faces,A,male,VS,F,20,E01,79.986328125,0
0,0.0,0,23681,2.34375,0.126953125,7.0,0.0,13,59,11,1178.3173828125,512.599304199219,0,1,objects,big,0,1,faces,A,male,VS,F,20,E01,79.986328125,0
0,0.0,0,23683,2.677734375,0.296875,8.0,0.0,12,31,13,824.132019042969,424.438232421875,0,1,faces,female,0,1,faces,A,male,VS,F,20,E01,79.986328125,0
0,0.0,0,23685,3.26171875,0.27734375,9.0,0.0,10,27,15,727.352416992188,890.521301269531,0,1,faces,male,0,1,faces,A,male,VS,F,20,E01,79.986328125,0
0,1.0,0,23705,0.537109375,0.240234375,2.0,1.0,4,25,2,753.032287597656,731.374877929688,0,1,faces,female,1,1,objects,P,small,VS,O,21,E01,84.185546875,1
0,1.0,0,23706,0.82421875,0.119140625,3.0,1.0,3,24,3,734.439514160156,640.049865722656,0,1,faces,male,1,1,objects,P,small,VS,O,21,E01,84.185546875,1
0,1.0,0,23707,1.01953125,0.12890625,4.0,1.0,15,79,4,1324.09484863281,695.42529296875,0,1,faces,male,1,1,objects,P,small,VS,O,21,E01,84.185546875,1
0,1.0,0,23709,1.453125,0.134765625,5.0,0.0,9,40,6,950.002746582031,426.230041503906,0,1,objects,small,1,1,objects,P,small,VS,O,21,E01,84.185546875,1
0,0.0,0,23759,0.875,0.201171875,2.0,1.0,5,25,5,729.640991210938,726.442749023438,0,1,objects,small,1,1,faces,P,female,VS,I,23,E01,92.583984375,0
0,0.0,0,23760,1.140625,0.169921875,3.0,1.0,3,14,6,660.097045898438,529.218505859375,0,1,objects,small,1,1,faces,P,female,VS,I,23,E01,92.583984375,0
0,0.0,0,23761,1.357421875,0.140625,4.0,1.0,8,31,7,833.343811035156,459.541625976562,0,1,faces,female,1,1,faces,P,female,VS,I,23,E01,92.583984375,0
0,0.0,0,23762,1.564453125,0.140625,5.0,0.0,1,4,8,544.829528808594,439.327392578125,0,1,faces,female,1,1,faces,P,female,VS,I,23,E01,92.583984375,0
0,0.0,0,23764,2.05078125,0.1875,6.0,0.0,11,46,10,1047.05578613281,169.903778076172,0,1,faces,female,1,1,faces,P,female,VS,I,23,E01,92.583984375,0
0,0.0,0,23765,2.287109375,0.11328125,7.0,0.0,10,38,11,955.476989746094,248.222625732422,0,1,faces,male,1,1,faces,P,female,VS,I,23,E01,92.583984375,0
1,1.0,1,23807,0.814453125,0.119140625,2.0,1.0,6,47,4,1090.47058105469,240.108535766602,0,1,faces,male,1,1,faces,P,female,VS,F,25,E01,100.982421875,1
0,1.0,0,23811,1.470703125,0.15625,4.0,1.0,12,68,8,1275.54919433594,581.028076171875,0,1,faces,female,1,1,faces,P,female,VS,F,25,E01,100.982421875,1
1,1.0,0,23815,2.234375,0.259765625,6.0,0.0,8,53,12,1073.88806152344,852.162353515625,0,1,faces,male,1,1,faces,P,female,VS,F,25,E01,100.982421875,1
0,1.0,0,23816,2.55859375,0.197265625,7.0,0.0,13,71,13,1257.73193359375,851.126403808594,0,1,faces,female,1,1,faces,P,female,VS,F,25,E01,100.982421875,1
0,1.0,0,23818,2.95703125,0.123046875,9.0,0.0,7,52,15,1057.81115722656,770.4609375,0,1,objects,big,1,1,faces,P,female,VS,F,25,E01,100.982421875,1
0,0.0,0,23868,0.5546875,0.1640625,2.0,1.0,10,55,3,1155.03295898438,182.630599975586,0,1,faces,male,0,1,faces,A,female,VS,I,27,E01,109.380859375,0
0,0.0,0,23869,0.783203125,0.1328125,3.0,1.0,7,38,4,988.290893554688,280.819763183594,0,1,objects,small,0,1,faces,A,female,VS,I,27,E01,109.380859375,0
0,0.0,0,23870,0.9609375,0.197265625,4.0,1.0,9,48,5,1076.24755859375,366.068267822266,0,1,faces,female,0,1,faces,A,female,VS,I,27,E01,109.380859375,0
0,0.0,1,23871,1.244140625,0.154296875,5.0,0.0,2,14,6,616.27197265625,574.03564453125,0,1,faces,female,0,1,faces,A,female,VS,I,27,E01,109.380859375,0
0,0.0,0,23873,1.7421875,0.20703125,6.0,0.0,3,16,8,656.444885253906,742.038696289062,0,1,faces,female,0,1,faces,A,female,VS,I,27,E01,109.380859375,0
0,0.0,0,23874,2.00390625,0.310546875,7.0,0.0,4,17,9,659.566711425781,842.827453613281,0,1,faces,female,0,1,faces,A,female,VS,I,27,E01,109.380859375,0
0,0.0,0,23875,2.388671875,0.1796875,8.0,0.0,8,42,10,965.131652832031,649.537109375,0,1,objects,big,0,1,faces,A,female,VS,I,27,E01,109.380859375,0
0,0.0,0,23876,2.63671875,0.173828125,9.0,0.0,14,69,11,1260.26977539062,642.505187988281,0,1,faces,female,0,1,faces,A,female,VS,I,27,E01,109.380859375,0
0,0.0,0,23877,2.880859375,0.240234375,10.0,0.0,12,62,12,1150.77124023438,839.774047851562,0,1,faces,male,0,1,faces,A,female,VS,I,27,E01,109.380859375,0
0,0.0,1,23878,3.166015625,0.10546875,11.0,0.0,13,63,13,1156.96838378906,963.170227050781,0,1,faces,male,0,1,faces,A,female,VS,I,27,E01,109.380859375,0
0,0.0,0,23880,3.443359375,0.193359375,12.0,0.0,15,80,15,1369.59741210938,870.156005859375,0,1,faces,male,0,1,faces,A,female,VS,I,27,E01,109.380859375,0
0,0.0,0,23882,3.849609375,0.177734375,13.0,0.0,11,58,17,1161.69909667969,437.772796630859,0,1,faces,female,0,1,faces,A,female,VS,I,27,E01,109.380859375,0
0,1.0,1,23933,0.451171875,0.138671875,2.0,1.0,6,37,2,927.962280273438,176.381805419922,0,1,faces,female,1,1,faces,P,male,VS,I,29,E01,117.779296875,1
0,1.0,0,23935,0.763671875,0.173828125,3.0,1.0,9,55,4,1199.55114746094,180.002426147461,0,1,faces,male,1,1,faces,P,male,VS,I,29,E01,117.779296875,1
0,1.0,0,23936,0.998046875,0.1953125,4.0,1.0,13,74,5,1336.04064941406,276.612548828125,0,1,faces,male,1,1,faces,P,male,VS,I,29,E01,117.779296875,1
0,1.0,0,23937,1.2421875,0.125,5.0,0.0,14,75,6,1392.00866699219,378.409729003906,0,1,objects,big,1,1,faces,P,male,VS,I,29,E01,117.779296875,1
0,1.0,0,23938,1.443359375,0.107421875,6.0,0.0,8,48,7,1059.40600585938,374.208923339844,0,1,faces,female,1,1,faces,P,male,VS,I,29,E01,117.779296875,1
0,1.0,0,23939,1.6171875,0.19921875,7.0,0.0,3,22,8,791.37841796875,451.220367431641,0,1,objects,small,1,1,faces,P,male,VS,I,29,E01,117.779296875,1
0,1.0,0,23940,1.861328125,0.138671875,8.0,0.0,4,32,9,879.199462890625,544.513061523438,0,1,objects,small,1,1,faces,P,male,VS,I,29,E01,117.779296875,1
0,1.0,0,23941,2.05859375,0.189453125,9.0,0.0,5,34,10,812.257751464844,723.930358886719,0,1,faces,male,1,1,faces,P,male,VS,I,29,E01,117.779296875,1
0,1.0,0,23942,2.306640625,0.26171875,10.0,0.0,2,16,11,651.463256835938,748.50146484375,0,1,faces,male,1,1,faces,P,male,VS,I,29,E01,117.779296875,1
0,1.0,0,23943,2.640625,0.236328125,11.0,0.0,7,42,12,959.244750976562,639.0673828125,0,1,faces,female,1,1,faces,P,male,VS,I,29,E01,117.779296875,1
0,1.0,0,23944,2.9453125,0.13671875,12.0,0.0,12,70,13,1261.6552734375,735.941467285156,0,1,objects,big,1,1,faces,P,male,VS,I,29,E01,117.779296875,1
0,1.0,0,23945,3.134765625,0.140625,13.0,0.0,11,68,14,1262.39538574219,555.264465332031,0,1,objects,big,1,1,faces,P,male,VS,I,29,E01,117.779296875,1
0,0.0,0,23963,0.818359375,0.275390625,2.0,1.0,13,69,5,1305.93884277344,651.230285644531,0,1,faces,male,0,1,faces,A,male,VS,F,30,E01,121.978515625,0
0,0.0,0,23964,1.1484375,0.16796875,3.0,1.0,9,59,6,1173.68701171875,551.759582519531,0,1,faces,male,0,1,faces,A,male,VS,F,30,E01,121.978515625,0
0,0.0,0,23968,1.931640625,0.279296875,4.0,1.0,8,40,10,961.221618652344,415.020324707031,0,1,faces,female,0,1,faces,A,male,VS,F,30,E01,121.978515625,0
0,0.0,0,23969,2.23828125,0.18359375,5.0,0.0,7,39,11,959.088195800781,345.226989746094,0,1,faces,female,0,1,faces,A,male,VS,F,30,E01,121.978515625,0
0,0.0,0,23970,2.48828125,0.142578125,6.0,0.0,5,22,12,750.748474121094,451.231689453125,0,1,faces,male,0,1,faces,A,male,VS,F,30,E01,121.978515625,0
0,0.0,0,23971,2.703125,0.3125,7.0,0.0,4,19,13,749.631225585938,169.009216308594,0,1,faces,female,0,1,faces,A,male,VS,F,30,E01,121.978515625,0
0,0.0,1,23972,3.078125,0.11328125,8.0,0.0,2,11,14,650.890869140625,270.786010742188,0,1,faces,male,0,1,faces,A,male,VS,F,30,E01,121.978515625,0
0,0.0,0,23974,3.541015625,0.337890625,9.0,0.0,11,64,16,1259.93762207031,173.703430175781,0,1,objects,big,0,1,faces,A,male,VS,F,30,E01,121.978515625,0
1,0.0,0,23990,0.80859375,0.109375,2.0,1.0,3,13,3,637.665405273438,444.474395751953,0,1,objects,small,0,1,faces,A,male,VS,I,31,E01,126.177734375,0
0,0.0,0,23991,1.013671875,0.263671875,3.0,1.0,14,58,4,1115.99609375,432.606292724609,0,1,faces,female,0,1,faces,A,male,VS,I,31,E01,126.177734375,0
0,0.0,0,23992,1.341796875,0.123046875,4.0,1.0,15,76,5,1312.47644042969,416.196258544922,0,1,faces,female,0,1,faces,A,male,VS,I,31,E01,126.177734375,0
0,0.0,0,23993,1.5,0.20703125,5.0,0.0,13,57,6,1182.75610351562,356.814270019531,0,1,faces,male,0,1,faces,A,male,VS,I,31,E01,126.177734375,0
0,0.0,0,23994,1.783203125,0.2265625,6.0,0.0,8,25,7,753.796813964844,693.771118164062,0,1,objects,big,0,1,faces,A,male,VS,I,31,E01,126.177734375,0
0,0.0,0,23995,2.083984375,0.20703125,7.0,0.0,4,17,8,657.141662597656,876.373840332031,0,1,objects,small,0,1,faces,A,male,VS,I,31,E01,126.177734375,0
0,0.0,0,23996,2.36328125,0.263671875,8.0,0.0,12,54,9,1079.17834472656,938.452270507812,0,1,faces,male,0,1,faces,A,male,VS,I,31,E01,126.177734375,0
0,0.0,0,23998,2.837890625,0.283203125,9.0,0.0,1,5,11,546.710266113281,555.960144042969,0,1,faces,male,0,1,faces,A,male,VS,I,31,E01,126.177734375,0
0,0.0,1,23999,3.197265625,0.12109375,10.0,0.0,9,36,12,888.286437988281,940.824401855469,0,1,faces,female,0,1,faces,A,male,VS,I,31,E01,126.177734375,0
0,1.0,0,24012,0.658203125,0.205078125,2.0,1.0,11,65,4,1310.43896484375,281.281890869141,0,1,objects,small,1,1,objects,P,small,VS,O,32,E01,130.376953125,1
1,0.0,0,24031,1.814453125,0.240234375,2.0,1.0,12,48,9,1034.53112792969,342.316711425781,0,1,objects,small,0,1,objects,A,big,VS,O,33,E01,134.576171875,0
0,0.0,0,24032,2.08984375,0.1953125,3.0,1.0,10,38,10,965.157958984375,257.421905517578,0,1,faces,female,0,1,objects,A,big,VS,O,33,E01,134.576171875,0
0,0.0,0,24034,2.599609375,0.205078125,5.0,0.0,8,32,12,810.502258300781,559.122680664062,0,1,faces,female,0,1,objects,A,big,VS,O,33,E01,134.576171875,0
0,0.0,0,24035,2.86328125,0.10546875,6.0,0.0,7,24,13,736.368896484375,641.73291015625,0,1,faces,male,0,1,objects,A,big,VS,O,33,E01,134.576171875,0
0,0.0,0,24037,3.224609375,0.16796875,7.0,0.0,1,1,15,562.141418457031,159.770889282227,0,1,faces,male,0,1,objects,A,big,VS,O,33,E01,134.576171875,0
0,0.0,0,24038,3.46484375,0.23046875,8.0,0.0,11,46,16,1035.39050292969,185.575408935547,0,1,faces,male,0,1,objects,A,big,VS,O,33,E01,134.576171875,0
0,0.0,0,24039,3.763671875,0.27734375,9.0,0.0,13,74,17,1347.88037109375,270.145324707031,0,1,faces,male,0,1,objects,A,big,VS,O,33,E01,134.576171875,0
0,0.0,0,24052,0.8046875,0.236328125,2.0,1.0,2,4,3,544.391723632812,448.719268798828,0,1,faces,female,0,1,faces,A,female,VS,F,34,E01,138.775390625,0
0,0.0,0,24056,1.580078125,0.21875,4.0,1.0,10,55,7,1150.98364257812,187.569046020508,0,1,faces,female,0,1,faces,A,female,VS,F,34,E01,138.775390625,0
0,0.0,0,24057,1.859375,0.2109375,5.0,0.0,15,73,8,1363.92053222656,189.005462646484,0,1,objects,small,0,1,faces,A,female,VS,F,34,E01,138.775390625,0
0,0.0,0,24059,2.283203125,0.169921875,6.0,0.0,1,3,10,545.317565917969,362.532409667969,0,1,faces,male,0,1,faces,A,female,VS,F,34,E01,138.775390625,0
0,0.0,0,24061,2.716796875,0.189453125,7.0,0.0,4,7,12,557.445129394531,701.212158203125,0,1,objects,big,0,1,faces,A,female,VS,F,34,E01,138.775390625,0
0,0.0,0,24062,2.9609375,0.208984375,8.0,0.0,7,23,13,744.865173339844,561.093139648438,0,1,faces,male,0,1,faces,A,female,VS,F,34,E01,138.775390625,0
0,0.0,1,24066,3.705078125,0.171875,9.0,0.0,13,63,17,1173.31298828125,945.462829589844,0,1,faces,male,0,1,faces,A,female,VS,F,34,E01,138.775390625,0
0,0.0,0,24076,1.1796875,0.12109375,2.0,1.0,6,16,3,665.416442871094,737.869812011719,0,1,faces,female,0,1,objects,A,small,VS,O,35,E01,142.974609375,0
0,0.0,0,24078,1.513671875,0.34375,3.0,1.0,4,11,5,641.643798828125,255.514495849609,0,1,objects,small,0,1,objects,A,small,VS,O,35,E01,142.974609375,0
1,0.0,0,24079,1.92578125,0.1171875,4.0,1.0,10,38,6,968.949829101562,250.905578613281,0,1,objects,small,0,1,objects,A,small,VS,O,35,E01,142.974609375,0
0,0.0,0,24081,2.353515625,0.115234375,5.0,0.0,8,26,8,738.461242675781,858.566101074219,0,1,objects,big,0,1,objects,A,small,VS,O,35,E01,142.974609375,0
0,0.0,0,24082,2.556640625,0.216796875,6.0,0.0,11,63,9,1184.224609375,941.761352539062,0,1,faces,male,0,1,objects,A,small,VS,O,35,E01,142.974609375,0
0,0.0,0,24084,3.009765625,0.16796875,7.0,0.0,12,65,11,1263.14245605469,287.806243896484,0,1,faces,female,0,1,objects,A,small,VS,O,35,E01,142.974609375,0
0,0.0,0,24086,3.53125,0.24609375,9.0,0.0,9,32,13,811.955871582031,553.36474609375,0,1,objects,small,0,1,objects,A,small,VS,O,35,E01,142.974609375,0
0,0.0,0,24087,3.841796875,0.193359375,10.0,0.0,5,14,14,628.697509765625,590.450256347656,0,1,faces,male,0,1,objects,A,small,VS,O,35,E01,142.974609375,0
0,1.0,0,24242,1.35546875,0.109375,3.0,1.0,14,69,6,1283.59777832031,629.944213867188,0,1,faces,female,1,1,faces,P,female,VS,F,41,E01,168.169921875,1
0,1.0,0,24265,1.375,0.158203125,3.0,1.0,13,74,6,1339.47509765625,217.675369262695,0,1,faces,female,1,1,faces,P,female,VS,I,42,E01,172.369140625,1
0,1.0,0,24300,0.611328125,0.107421875,2.0,1.0,14,75,2,1353.90686035156,304.319000244141,0,1,faces,male,1,1,objects,P,big,VS,O,44,E01,180.767578125,1
0,1.0,0,24301,0.736328125,0.1015625,3.0,1.0,13,74,3,1371.01342773438,283.442687988281,0,1,faces,female,1,1,objects,P,big,VS,O,44,E01,180.767578125,1
0,1.0,0,24303,1.11328125,0.162109375,4.0,1.0,4,22,5,747.702209472656,447.280364990234,0,1,objects,small,1,1,objects,P,big,VS,O,44,E01,180.767578125,1
0,1.0,0,24427,1.107421875,0.501953125,2.0,1.0,6,24,3,759.810119628906,644.431945800781,0,1,faces,male,1,1,faces,P,male,VS,F,49,E01,201.763671875,1
0,1.0,1,24428,1.666015625,0.173828125,3.0,1.0,4,17,4,699.128967285156,862.157287597656,0,1,faces,female,1,1,faces,P,male,VS,F,49,E01,201.763671875,1
0,1.0,0,24431,2.205078125,0.1875,4.0,1.0,8,34,7,861.879821777344,733.322326660156,0,1,objects,big,1,1,faces,P,male,VS,F,49,E01,201.763671875,1
0,1.0,0,24432,2.462890625,0.26171875,5.0,0.0,11,60,8,1174.16564941406,592.690612792969,0,1,faces,female,1,1,faces,P,male,VS,F,49,E01,201.763671875,1
0,1.0,0,24500,0.69140625,0.12890625,2.0,1.0,9,49,4,1088.83044433594,450.209747314453,0,1,faces,female,1,1,faces,P,female,VS,I,52,E01,214.361328125,1
0,0.0,0,24505,2.900390625,0.234375,4.0,1.0,5,24,9,751.211791992188,649.386169433594,0,1,faces,male,1,1,faces,P,female,VS,I,52,E01,214.361328125,0
0,0.0,0,24506,3.2109375,0.166015625,5.0,0.0,13,69,10,1245.78747558594,655.629577636719,0,1,faces,male,1,1,faces,P,female,VS,I,52,E01,214.361328125,0
0,0.0,1,24507,3.419921875,0.146484375,6.0,0.0,14,78,11,1329.83264160156,643.86572265625,0,1,faces,female,1,1,faces,P,female,VS,I,52,E01,214.361328125,0
0,0.0,0,24509,3.837890625,0.232421875,7.0,0.0,3,17,13,670.445373535156,868.890258789062,0,1,faces,female,1,1,faces,P,female,VS,I,52,E01,214.361328125,0
0,0.0,0,24526,0.57421875,0.1171875,2.0,1.0,3,15,3,647.522521972656,637.128479003906,0,1,objects,big,0,1,objects,A,small,VS,O,53,E01,218.560546875,0
0,0.0,0,24528,0.943359375,0.150390625,3.0,1.0,4,19,5,752.151000976562,186.026351928711,0,1,objects,small,0,1,objects,A,small,VS,O,53,E01,218.560546875,0
0,0.0,0,24529,1.162109375,0.28515625,4.0,1.0,9,57,6,1147.37438964844,312.969299316406,0,1,faces,male,0,1,objects,A,small,VS,O,53,E01,218.560546875,0
0,0.0,0,24530,1.4921875,0.27734375,5.0,0.0,10,58,7,1200.96728515625,418.289703369141,0,1,objects,small,0,1,objects,A,small,VS,O,53,E01,218.560546875,0
0,0.0,0,24531,1.8046875,0.193359375,6.0,0.0,7,48,8,1087.81921386719,356.905181884766,0,1,objects,big,0,1,objects,A,small,VS,O,53,E01,218.560546875,0
0,0.0,0,24532,2.072265625,0.2265625,7.0,0.0,8,52,9,1063.87194824219,772.291381835938,0,1,objects,small,0,1,objects,A,small,VS,O,53,E01,218.560546875,0
0,0.0,0,24533,2.361328125,0.1953125,8.0,0.0,11,63,10,1181.49951171875,922.214111328125,0,1,faces,female,0,1,objects,A,small,VS,O,53,E01,218.560546875,0
0,0.0,0,24534,2.62109375,0.158203125,9.0,0.0,15,81,11,1382.80810546875,932.181640625,0,1,faces,female,0,1,objects,A,small,VS,O,53,E01,218.560546875,0
0,0.0,1,24536,3.1015625,0.125,10.0,0.0,13,66,13,1275.31469726562,311.089172363281,0,1,faces,male,0,1,objects,A,small,VS,O,53,E01,218.560546875,0
0,0.0,0,24560,0.8046875,0.248046875,2.0,1.0,13,57,3,1149.37609863281,335.649810791016,0,1,objects,small,1,1,faces,P,female,VS,F,54,E01,222.759765625,0
0,0.0,0,24562,1.32421875,0.146484375,4.0,1.0,3,12,5,675.365478515625,374.251831054688,0,1,faces,male,1,1,faces,P,female,VS,F,54,E01,222.759765625,0
0,1.0,0,24577,0.5390625,0.36328125,2.0,1.0,13,56,2,1177.07690429688,244.857757568359,0,1,objects,small,1,1,objects,P,small,VS,O,55,E01,226.958984375,1
0,0.0,0,24582,3.330078125,0.43359375,4.0,1.0,3,16,7,655.642333984375,724.762451171875,0,1,faces,male,1,1,objects,P,small,VS,O,55,E01,226.958984375,0
0,1.0,0,24599,1.09765625,0.1875,2.0,1.0,10,58,3,1141.20251464844,479.136810302734,0,1,faces,male,1,1,objects,P,big,VS,O,56,E01,231.158203125,1
0,1.0,0,24600,1.353515625,0.224609375,3.0,1.0,7,42,4,999.66650390625,628.956787109375,0,1,objects,small,1,1,objects,P,big,VS,O,56,E01,231.158203125,1
0,1.0,0,24601,1.625,0.171875,4.0,1.0,11,60,5,1178.12170410156,627.736511230469,0,1,objects,big,1,1,objects,P,big,VS,O,56,E01,231.158203125,1
0,1.0,0,24602,1.873046875,0.267578125,5.0,0.0,2,15,6,624.904479980469,657.756713867188,0,1,objects,small,1,1,objects,P,big,VS,O,56,E01,231.158203125,1
0,1.0,0,24603,2.23046875,0.22265625,6.0,0.0,8,52,7,1099.73718261719,760.257995605469,0,1,objects,small,1,1,objects,P,big,VS,O,56,E01,231.158203125,1
0,1.0,0,24604,2.515625,0.177734375,7.0,0.0,13,71,8,1286.58728027344,838.879699707031,0,1,faces,female,1,1,objects,P,big,VS,O,56,E01,231.158203125,1
0,0.0,0,24673,0.806640625,0.212890625,2.0,1.0,5,12,3,614.376281738281,378.565338134766,0,1,faces,female,0,1,objects,A,big,VS,O,59,E01,243.755859375,0
0,0.0,0,24674,2.439453125,0.146484375,3.0,1.0,13,67,4,1282.03161621094,457.039001464844,0,1,objects,big,0,1,objects,A,big,VS,O,59,E01,243.755859375,0
0,0.0,0,24678,3.455078125,0.494140625,5.0,0.0,2,2,8,557.765747070312,256.706207275391,0,1,objects,small,0,1,objects,A,big,VS,O,59,E01,243.755859375,0
0,0.0,0,24691,0.8828125,0.126953125,2.0,1.0,9,38,5,953.031372070312,275.580017089844,0,1,objects,small,0,1,faces,A,female,VS,I,60,E01,247.955078125,0
0,0.0,0,24694,1.421875,0.134765625,3.0,1.0,7,29,8,898.585876464844,246.606292724609,0,1,faces,male,0,1,faces,A,female,VS,I,60,E01,247.955078125,0
0,0.0,1,24695,1.625,0.14453125,4.0,1.0,12,49,9,1110.39953613281,452.432434082031,0,1,faces,female,0,1,faces,A,female,VS,I,60,E01,247.955078125,0
0,0.0,0,24697,1.96875,0.240234375,5.0,0.0,5,13,11,687.570251464844,473.148468017578,0,1,faces,male,0,1,faces,A,female,VS,I,60,E01,247.955078125,0
0,0.0,0,24698,2.896484375,0.19921875,6.0,0.0,13,53,12,1108.64721679688,821.785705566406,0,1,faces,female,0,1,faces,A,female,VS,I,60,E01,247.955078125,0
0,0.0,0,24699,3.17578125,0.265625,7.0,0.0,2,8,13,557.508117675781,868.11376953125,0,1,faces,male,0,1,faces,A,female,VS,I,60,E01,247.955078125,0
0,0.0,0,24700,3.482421875,0.138671875,8.0,0.0,3,9,14,543.233947753906,952.617431640625,0,1,faces,female,0,1,faces,A,female,VS,I,60,E01,247.955078125,0
0,0.0,0,24721,0.99609375,0.3125,2.0,1.0,12,73,5,1372.51599121094,184.513458251953,0,1,faces,female,0,1,faces,A,female,VS,F,61,E01,252.154296875,0
0,0.0,0,24722,1.353515625,0.30859375,3.0,1.0,13,74,6,1370.14331054688,265.791564941406,0,1,faces,female,0,1,faces,A,female,VS,F,61,E01,252.154296875,0
0,0.0,0,24723,1.693359375,0.154296875,4.0,1.0,11,65,7,1268.61010742188,273.91357421875,0,1,objects,big,0,1,faces,A,female,VS,F,61,E01,252.154296875,0
0,0.0,0,24725,2.109375,0.14453125,5.0,0.0,1,3,9,561.154541015625,351.471466064453,0,1,objects,big,0,1,faces,A,female,VS,F,61,E01,252.154296875,0
0,0.0,0,24726,2.318359375,0.16796875,6.0,0.0,4,22,10,740.606018066406,436.819396972656,0,1,faces,female,0,1,faces,A,female,VS,F,61,E01,252.154296875,0
0,0.0,0,24727,2.533203125,0.1953125,7.0,0.0,2,4,11,572.576049804688,449.65234375,0,1,faces,male,0,1,faces,A,female,VS,F,61,E01,252.154296875,0
0,0.0,0,24728,2.80078125,0.181640625,8.0,0.0,3,16,12,701.850524902344,725.381225585938,0,1,faces,male,0,1,faces,A,female,VS,F,61,E01,252.154296875,0
0,0.0,0,24729,3.02734375,0.138671875,9.0,0.0,7,34,13,850.96337890625,736.527038574219,0,1,faces,male,0,1,faces,A,female,VS,F,61,E01,252.154296875,0
0,0.0,0,24731,3.388671875,0.16015625,10.0,0.0,15,81,15,1396.06945800781,906.123840332031,0,1,faces,female,0,1,faces,A,female,VS,F,61,E01,252.154296875,0
0,1.0,0,24806,1.083984375,0.251953125,2.0,1.0,11,55,5,1188.27416992188,174.363555908203,0,1,faces,female,1,1,faces,P,male,VS,F,64,E01,264.751953125,1
0,1.0,0,24807,1.37890625,0.126953125,3.0,1.0,13,64,6,1282.58129882812,179.22395324707,0,1,faces,female,1,1,faces,P,male,VS,F,64,E01,264.751953125,1
0,0.0,1,24831,1.345703125,0.193359375,2.0,1.0,11,59,6,1165.75231933594,583.912170410156,0,1,faces,male,0,1,objects,P,small,VS,O,65,E01,268.951171875,0
0,0.0,1,24833,1.7578125,0.21484375,3.0,1.0,3,13,8,686.409851074219,481.324584960938,0,1,objects,big,0,1,objects,P,small,VS,O,65,E01,268.951171875,0
0,0.0,0,24835,2.19921875,0.25,4.0,1.0,2,11,10,646.60400390625,238.121948242188,0,1,faces,female,0,1,objects,P,small,VS,O,65,E01,268.951171875,0
0,0.0,0,24838,2.92578125,0.1640625,5.0,0.0,14,75,13,1380.693359375,341.766754150391,0,1,faces,male,0,1,objects,P,small,VS,O,65,E01,268.951171875,0
0,0.0,1,24840,3.625,0.16015625,6.0,0.0,10,52,15,1034.70227050781,723.556762695312,0,1,objects,big,0,1,objects,P,small,VS,O,65,E01,268.951171875,0
0,1.0,1,24885,0.99609375,0.16796875,2.0,1.0,12,66,3,1306.92932128906,333.741424560547,0,1,faces,male,1,1,faces,P,male,VS,F,67,E01,277.349609375,1
0,1.0,0,24887,1.38671875,0.23046875,3.0,1.0,3,23,5,737.35498046875,516.80224609375,0,1,objects,small,1,1,faces,P,male,VS,F,67,E01,277.349609375,1
0,1.0,0,24888,1.673828125,0.1328125,4.0,1.0,7,50,6,1032.78125,525.287109375,0,1,objects,big,1,1,faces,P,male,VS,F,67,E01,277.349609375,1
0,1.0,1,24889,1.908203125,0.119140625,5.0,0.0,1,2,7,575.541442871094,289.832977294922,0,1,faces,female,1,1,faces,P,male,VS,F,67,E01,277.349609375,1
0,1.0,0,24892,2.587890625,0.291015625,6.0,0.0,8,52,10,1058.1748046875,712.161926269531,0,1,faces,male,1,1,faces,P,male,VS,F,67,E01,277.349609375,1
0,1.0,0,24893,2.951171875,0.287109375,7.0,0.0,4,25,11,783.363586425781,732.798156738281,0,1,faces,female,1,1,faces,P,male,VS,F,67,E01,277.349609375,1
0,0.0,0,24943,1.0625,0.208984375,2.0,1.0,3,11,5,659.598693847656,243.92138671875,0,1,faces,male,0,1,faces,A,male,VS,I,69,E01,285.748046875,0
0,0.0,0,24944,1.310546875,0.232421875,3.0,1.0,5,21,6,766.691467285156,329.737274169922,0,1,faces,female,0,1,faces,A,male,VS,I,69,E01,285.748046875,0
1,0.0,0,24947,2.017578125,0.232421875,4.0,1.0,6,25,9,770.143310546875,747.523376464844,0,1,faces,male,0,1,faces,A,male,VS,I,69,E01,285.748046875,0
0,0.0,0,24948,2.291015625,0.171875,5.0,0.0,11,34,10,871.250244140625,742.894958496094,0,1,faces,female,0,1,faces,A,male,VS,I,69,E01,285.748046875,0
0,0.0,1,24950,2.65625,0.18359375,6.0,0.0,9,32,12,877.2138671875,587.518737792969,0,1,faces,female,0,1,faces,A,male,VS,I,69,E01,285.748046875,0
0,0.0,0,24952,3.109375,0.14453125,7.0,0.0,2,6,14,538.912292480469,622.178161621094,0,1,faces,male,0,1,faces,A,male,VS,I,69,E01,285.748046875,0
0,0.0,0,24954,3.62890625,0.1875,8.0,0.0,15,77,16,1395.15783691406,535.680786132812,0,1,faces,female,0,1,faces,A,male,VS,I,69,E01,285.748046875,0
1,0.0,0,24973,1.1875,0.16796875,2.0,1.0,7,37,5,966.644775390625,188.995407104492,0,1,faces,male,0,1,faces,P,male,VS,I,70,E01,289.947265625,0
0,0.0,1,24977,2.515625,0.2265625,4.0,1.0,2,13,9,706.224426269531,415.048828125,0,1,faces,female,0,1,faces,P,male,VS,I,70,E01,289.947265625,0
0,0.0,0,24979,2.966796875,0.123046875,5.0,0.0,3,14,11,640.130615234375,512.093933105469,0,1,faces,male,0,1,faces,P,male,VS,I,70,E01,289.947265625,0
0,0.0,0,24980,3.19140625,0.1796875,6.0,0.0,10,60,12,1192.18176269531,687.569580078125,0,1,objects,small,0,1,faces,P,male,VS,I,70,E01,289.947265625,0
1,0.0,0,24981,3.421875,0.19140625,7.0,0.0,14,79,13,1365.166015625,783.748352050781,0,1,faces,female,0,1,faces,P,male,VS,I,70,E01,289.947265625,0
0,0.0,0,24982,3.640625,0.134765625,8.0,0.0,15,80,14,1385.958984375,830.299133300781,0,1,objects,small,0,1,faces,P,male,VS,I,70,E01,289.947265625,0
0,1.0,0,25029,1.25,0.185546875,2.0,1.0,5,31,5,907.6494140625,449.379577636719,0,1,faces,female,1,1,faces,P,male,VS,I,72,E01,298.345703125,1
0,0.0,0,25254,0.6875,0.220703125,2.0,1.0,9,35,3,871.778991699219,873.103149414062,0,1,faces,female,0,1,objects,A,small,VS,O,74,E01,306.744140625,0
1,0.0,0,25255,0.94921875,0.125,3.0,1.0,8,34,4,843.197875976562,761.644348144531,0,1,faces,female,0,1,objects,A,small,VS,O,74,E01,306.744140625,0
1,0.0,0,25259,1.677734375,0.189453125,5.0,0.0,7,33,8,863.57177734375,630.296569824219,0,1,objects,big,0,1,objects,A,small,VS,O,74,E01,306.744140625,0
0,0.0,0,25261,2.09375,0.201171875,6.0,0.0,1,7,10,537.177124023438,724.552795410156,0,1,objects,small,0,1,objects,A,small,VS,O,74,E01,306.744140625,0
0,0.0,1,25262,2.40625,0.1484375,7.0,0.0,5,30,11,835.083862304688,377.385040283203,0,1,faces,male,0,1,objects,A,small,VS,O,74,E01,306.744140625,0
0,0.0,0,25264,2.7265625,0.224609375,8.0,0.0,4,28,13,838.209777832031,163.199249267578,0,1,objects,small,0,1,objects,A,small,VS,O,74,E01,306.744140625,0
0,0.0,1,25265,2.998046875,0.15625,9.0,0.0,3,11,14,661.988037109375,211.389556884766,0,1,objects,small,0,1,objects,A,small,VS,O,74,E01,306.744140625,0
0,0.0,0,25290,1.38671875,0.1484375,2.0,1.0,11,55,8,1190.2490234375,164.600006103516,0,1,objects,big,0,1,objects,A,big,VS,O,75,E01,310.943359375,0
0,0.0,0,25291,1.572265625,0.201171875,3.0,1.0,8,37,9,976.789001464844,158.712829589844,0,1,objects,small,0,1,objects,A,big,VS,O,75,E01,310.943359375,0
0,0.0,0,25296,2.6640625,0.17578125,4.0,1.0,7,34,14,862.425109863281,694.780578613281,0,1,faces,male,0,1,objects,A,big,VS,O,75,E01,310.943359375,0
0,1.0,0,25321,0.47265625,0.26171875,2.0,1.0,3,10,3,644.225769042969,174.7392578125,0,1,faces,male,1,1,faces,P,female,VS,F,76,E01,315.142578125,1
0,1.0,0,25322,0.845703125,0.2421875,3.0,1.0,13,73,4,1336.42272949219,188.365142822266,0,1,faces,male,1,1,faces,P,female,VS,F,76,E01,315.142578125,1
0,1.0,0,25324,1.462890625,0.24609375,5.0,0.0,4,12,6,644.184814453125,345.332092285156,0,1,objects,small,1,1,faces,P,female,VS,F,76,E01,315.142578125,1
0,1.0,0,25325,1.767578125,0.2890625,6.0,0.0,2,5,7,547.527954101562,553.799011230469,0,1,faces,male,1,1,faces,P,female,VS,F,76,E01,315.142578125,1
0,1.0,0,25326,2.107421875,0.2109375,7.0,0.0,6,23,8,742.960693359375,555.971252441406,0,1,faces,male,1,1,faces,P,female,VS,F,76,E01,315.142578125,1
0,1.0,0,25327,2.361328125,0.255859375,8.0,0.0,8,33,9,855.112670898438,630.753295898438,0,1,faces,female,1,1,faces,P,female,VS,F,76,E01,315.142578125,1
0,0.0,0,25345,1.314453125,0.25390625,2.0,1.0,11,66,3,1286.31823730469,381.132415771484,0,1,faces,male,0,1,faces,A,female,VS,I,77,E01,319.341796875,0
1,0.0,0,25347,1.859375,0.23828125,3.0,1.0,6,33,5,850.512329101562,614.813049316406,0,1,faces,male,0,1,faces,A,female,VS,I,77,E01,319.341796875,0
0,0.0,0,25348,2.166015625,0.1953125,4.0,1.0,2,6,6,554.998962402344,651.711242675781,0,1,faces,female,0,1,faces,A,female,VS,I,77,E01,319.341796875,0
0,0.0,0,25351,3.033203125,0.220703125,6.0,0.0,9,62,9,1158.38818359375,812.333862304688,0,1,objects,small,0,1,faces,A,female,VS,I,77,E01,319.341796875,0
0,0.0,0,25352,3.330078125,0.275390625,7.0,0.0,4,17,10,697.269897460938,850.956909179688,0,1,faces,male,0,1,faces,A,female,VS,I,77,E01,319.341796875,0
0,0.0,0,25353,3.787109375,0.22265625,8.0,0.0,10,63,11,1164.49426269531,911.869323730469,0,1,faces,female,0,1,faces,A,female,VS,I,77,E01,319.341796875,0
0,1.0,0,25397,0.634765625,0.259765625,2.0,1.0,10,57,2,1168.78063964844,339.539581298828,0,1,faces,female,1,1,objects,P,small,VS,O,79,E01,327.740234375,1
0,1.0,0,25398,0.939453125,0.291015625,3.0,1.0,9,49,3,1110.05383300781,417.940612792969,0,1,faces,male,1,1,objects,P,small,VS,O,79,E01,327.740234375,1
0,1.0,0,25400,1.544921875,0.12109375,5.0,0.0,1,8,5,582.695068359375,811.261291503906,0,1,faces,male,1,1,objects,P,small,VS,O,79,E01,327.740234375,1
0,1.0,1,25421,1.27734375,0.150390625,2.0,1.0,11,56,5,1132.85607910156,233.787033081055,0,1,faces,male,1,1,objects,P,big,VS,O,80,E01,331.939453125,1
0,0.0,0,25428,3.578125,0.138671875,4.0,1.0,7,24,12,734.587158203125,618.5146484375,0,1,objects,small,1,1,objects,P,big,VS,O,80,E01,331.939453125,0
0,0.0,0,25509,1.03515625,0.169921875,2.0,1.0,2,11,4,649.567138671875,261.710052490234,0,1,objects,small,0,1,faces,A,male,VS,I,83,E01,344.537109375,0
0,0.0,0,25510,1.2578125,0.24609375,3.0,1.0,3,13,5,673.773193359375,417.258270263672,0,1,faces,female,0,1,faces,A,male,VS,I,83,E01,344.537109375,0
0,0.0,0,25511,1.5546875,0.248046875,4.0,1.0,8,31,6,853.192932128906,443.381225585938,0,1,objects,small,0,1,faces,A,male,VS,I,83,E01,344.537109375,0
0,0.0,0,25512,1.861328125,0.3203125,5.0,0.0,6,24,7,763.790771484375,656.367492675781,0,1,faces,female,0,1,faces,A,male,VS,I,83,E01,344.537109375,0
0,0.0,0,25513,2.31640625,0.1328125,6.0,0.0,10,52,8,1018.34820556641,770.666870117188,0,1,faces,male,0,1,faces,A,male,VS,I,83,E01,344.537109375,0
1,0.0,0,25514,2.5,0.193359375,7.0,0.0,11,53,9,1083.18017578125,873.522338867188,0,1,objects,big,0,1,faces,A,male,VS,I,83,E01,344.537109375,0
0,0.0,1,25515,2.765625,0.134765625,8.0,0.0,4,18,10,686.312744140625,972.168334960938,0,1,faces,female,0,1,faces,A,male,VS,I,83,E01,344.537109375,0
0,0.0,0,25517,3.109375,0.154296875,9.0,0.0,12,54,12,1035.51330566406,933.08447265625,0,1,faces,male,0,1,faces,A,male,VS,I,83,E01,344.537109375,0
0,1.0,0,25562,0.642578125,0.181640625,2.0,1.0,7,28,3,837.283325195312,177.401565551758,0,1,faces,female,1,1,faces,P,female,VS,I,85,E01,352.935546875,1
0,1.0,0,25563,0.919921875,0.302734375,3.0,1.0,1,2,4,583.384399414062,238.555419921875,0,1,faces,female,1,1,faces,P,female,VS,I,85,E01,352.935546875,1
0,0.0,1,25591,0.53125,0.314453125,2.0,1.0,12,65,3,1242.96044921875,207.985778808594,0,1,faces,male,1,1,faces,P,female,VS,I,86,E01,357.134765625,0
0,0.0,0,25594,1.564453125,0.294921875,3.0,1.0,13,67,6,1248.97082519531,459.626647949219,0,1,faces,female,1,1,faces,P,female,VS,I,86,E01,357.134765625,0
0,0.0,0,25595,1.9375,0.140625,4.0,1.0,10,60,7,1149.59606933594,606.515380859375,0,1,objects,big,1,1,faces,P,female,VS,I,86,E01,357.134765625,0
0,0.0,0,25596,2.15234375,0.126953125,5.0,0.0,4,24,8,774.657958984375,629.412353515625,0,1,objects,small,1,1,faces,P,female,VS,I,86,E01,357.134765625,0
0,1.0,0,25739,0.576171875,0.251953125,2.0,1.0,12,65,4,1288.14086914062,274.851623535156,0,1,faces,female,1,1,faces,P,male,VS,F,91,E01,378.130859375,1
0,0.0,0,25856,0.623046875,0.140625,2.0,1.0,4,29,2,854.031677246094,257.240814208984,0,1,objects,small,0,1,faces,A,female,VS,F,95,E01,394.927734375,0
0,0.0,0,25858,1.01171875,0.216796875,3.0,1.0,10,65,4,1265.45104980469,269.055755615234,0,1,faces,female,0,1,faces,A,female,VS,F,95,E01,394.927734375,0
0,0.0,0,25859,1.283203125,0.1953125,4.0,1.0,12,75,5,1371.34887695312,339.800170898438,0,1,objects,small,0,1,faces,A,female,VS,F,95,E01,394.927734375,0
0,0.0,0,25860,1.5234375,0.240234375,5.0,0.0,13,76,6,1374.42687988281,442.417602539062,0,1,faces,female,0,1,faces,A,female,VS,F,95,E01,394.927734375,0
0,0.0,0,25861,1.84375,0.26171875,6.0,0.0,14,78,7,1365.25610351562,641.959655761719,0,1,faces,female,0,1,faces,A,female,VS,F,95,E01,394.927734375,0
0,0.0,1,25862,2.3828125,0.173828125,7.0,0.0,2,3,8,575.637268066406,386.529052734375,0,1,faces,male,0,1,faces,A,female,VS,F,95,E01,394.927734375,0
0,0.0,0,25864,2.78125,0.19921875,8.0,0.0,5,32,10,822.337158203125,526.693420410156,0,1,faces,male,0,1,faces,A,female,VS,F,95,E01,394.927734375,0
0,0.0,0,25865,3.08203125,0.236328125,9.0,0.0,9,61,11,1133.76977539062,733.403564453125,0,1,faces,female,0,1,faces,A,female,VS,F,95,E01,394.927734375,0
0,0.0,1,25866,3.39453125,0.171875,10.0,0.0,6,36,12,901.835327148438,920.690856933594,0,1,faces,male,0,1,faces,A,female,VS,F,95,E01,394.927734375,0
0,0.0,0,25869,3.892578125,0.177734375,11.0,0.0,15,80,15,1371.3046875,816.669921875,0,1,objects,big,0,1,faces,A,female,VS,F,95,E01,394.927734375,0
0,1.0,1,25882,1.001953125,0.115234375,2.0,1.0,7,48,3,1057.10620117188,290.988800048828,0,1,faces,female,1,1,faces,P,female,VS,I,96,E01,399.126953125,1
0,1.0,0,25884,1.55078125,0.185546875,3.0,1.0,10,58,5,1157.654296875,449.244750976562,0,1,faces,male,1,1,faces,P,female,VS,I,96,E01,399.126953125,1
0,1.0,0,25932,0.76953125,0.193359375,2.0,1.0,12,76,3,1385.90087890625,465.8408203125,0,1,faces,male,1,1,faces,P,male,VS,F,98,E01,407.525390625,1
0,1.0,0,25933,1.0625,0.16796875,3.0,1.0,2,10,4,680.783447265625,173.486480712891,0,1,faces,female,1,1,faces,P,male,VS,F,98,E01,407.525390625,1
0,1.0,0,25935,1.46484375,0.193359375,4.0,1.0,14,79,6,1394.15637207031,732.377746582031,0,1,faces,female,1,1,faces,P,male,VS,F,98,E01,407.525390625,1
0,1.0,0,25936,1.701171875,0.1953125,5.0,0.0,10,71,7,1309.2353515625,841.721435546875,0,1,faces,female,1,1,faces,P,male,VS,F,98,E01,407.525390625,1
0,0.0,0,25981,0.673828125,0.2890625,2.0,1.0,2,13,3,664.615051269531,427.664764404297,0,1,faces,male,0,1,faces,P,male,VS,F,100,E01,415.923828125,0
0,0.0,0,25983,1.26953125,0.2265625,3.0,1.0,3,17,5,653.273254394531,842.447387695312,0,1,faces,male,0,1,faces,P,male,VS,F,100,E01,415.923828125,0
0,0.0,0,25985,1.736328125,0.177734375,4.0,1.0,14,72,7,1275.26818847656,919.889587402344,0,1,faces,female,0,1,faces,P,male,VS,F,100,E01,415.923828125,0
0,0.0,0,25986,1.974609375,0.134765625,5.0,0.0,15,79,8,1388.82580566406,737.507141113281,0,1,faces,male,0,1,faces,P,male,VS,F,100,E01,415.923828125,0
0,0.0,0,25988,2.458984375,0.2109375,6.0,0.0,12,65,10,1230.70397949219,272.508941650391,0,1,faces,female,0,1,faces,P,male,VS,F,100,E01,415.923828125,0
0,1.0,0,26031,0.521484375,0.248046875,2.0,1.0,2,10,2,673.330871582031,169.098541259766,0,1,faces,male,1,1,faces,P,female,VS,I,102,E01,424.322265625,1
0,1.0,0,26032,0.8125,0.134765625,3.0,1.0,1,1,3,578.214111328125,154.82666015625,0,1,objects,big,1,1,faces,P,female,VS,I,102,E01,424.322265625,1
0,1.0,0,26033,0.9921875,0.28125,4.0,1.0,3,11,4,678.857177734375,258.474578857422,0,1,faces,female,1,1,faces,P,female,VS,I,102,E01,424.322265625,1
0,1.0,0,26034,1.318359375,0.275390625,5.0,0.0,5,21,5,803.272827148438,360.571228027344,0,1,objects,big,1,1,faces,P,female,VS,I,102,E01,424.322265625,1
0,1.0,0,26037,2.078125,0.18359375,6.0,0.0,13,61,8,1163.60632324219,741.0703125,0,1,objects,small,1,1,faces,P,female,VS,I,102,E01,424.322265625,1
0,0.0,0,26039,2.650390625,0.142578125,8.0,0.0,8,44,10,987.904418945312,853.855529785156,0,1,faces,male,1,1,faces,P,female,VS,I,102,E01,424.322265625,0
0,1.0,0,26051,0.76171875,0.109375,2.0,1.0,13,75,3,1386.53735351562,306.834014892578,0,1,objects,big,1,1,objects,P,big,VS,O,103,E01,428.521484375,1
0,1.0,0,26052,0.900390625,0.216796875,3.0,1.0,12,74,4,1374.36694335938,278.625854492188,0,1,objects,small,1,1,objects,P,big,VS,O,103,E01,428.521484375,1
0,1.0,0,26053,1.171875,0.169921875,4.0,1.0,11,67,5,1229.59765625,419.624206542969,0,1,faces,female,1,1,objects,P,big,VS,O,103,E01,428.521484375,1
0,1.0,0,26054,1.384765625,0.25390625,5.0,0.0,7,49,6,1081.44702148438,442.461822509766,0,1,faces,female,1,1,objects,P,big,VS,O,103,E01,428.521484375,1
0,0.0,0,26137,2.533203125,0.265625,2.0,1.0,7,39,10,968.778503417969,342.159271240234,0,1,faces,male,0,1,faces,A,female,VS,F,106,E01,441.119140625,0
0,0.0,0,26139,3.10546875,0.142578125,3.0,1.0,9,62,12,1206.96252441406,839.993286132812,0,1,objects,small,0,1,faces,A,female,VS,F,106,E01,441.119140625,0
0,0.0,0,26140,3.3359375,0.173828125,4.0,1.0,4,26,13,757.892211914062,859.888427734375,0,1,objects,big,0,1,faces,A,female,VS,F,106,E01,441.119140625,0
0,0.0,0,26141,3.548828125,0.173828125,5.0,0.0,6,35,14,863.372619628906,852.842529296875,0,1,faces,female,0,1,faces,A,female,VS,F,106,E01,441.119140625,0
0,0.0,0,26143,3.966796875,0.134765625,6.0,0.0,1,4,16,518.570922851562,468.739013671875,0,1,faces,female,0,1,faces,A,female,VS,F,106,E01,441.119140625,0
0,1.0,0,26158,0.478515625,0.26171875,2.0,1.0,7,41,2,972.236633300781,492.193206787109,0,1,objects,small,1,1,objects,P,big,VS,O,107,E01,445.318359375,1
0,0.0,1,26191,1.037109375,0.15625,2.0,1.0,10,47,6,1041.41882324219,248.877655029297,0,1,faces,female,0,1,faces,A,female,VS,I,108,E01,449.517578125,0
0,0.0,0,26193,1.412109375,0.185546875,3.0,1.0,11,48,8,1077.69702148438,348.938934326172,0,1,faces,female,0,1,faces,A,female,VS,I,108,E01,449.517578125,0
0,0.0,0,26194,1.662109375,0.10546875,4.0,1.0,6,30,9,830.529174804688,388.029632568359,0,1,objects,small,0,1,faces,A,female,VS,I,108,E01,449.517578125,0
0,0.0,0,26195,1.80859375,0.12890625,5.0,0.0,4,22,10,764.2197265625,457.56787109375,0,1,faces,female,0,1,faces,A,female,VS,I,108,E01,449.517578125,0
0,0.0,0,26197,2.80859375,0.23828125,6.0,0.0,9,42,12,975.0146484375,654.996215820312,0,1,faces,male,0,1,faces,A,female,VS,I,108,E01,449.517578125,0
0,0.0,0,26198,3.1171875,0.181640625,7.0,0.0,14,70,13,1300.6337890625,736.50244140625,0,1,objects,big,0,1,faces,A,female,VS,I,108,E01,449.517578125,0
0,0.0,1,26199,3.376953125,0.15234375,8.0,0.0,5,26,14,793.261352539062,872.632019042969,0,1,faces,female,0,1,faces,A,female,VS,I,108,E01,449.517578125,0
0,0.0,0,26201,3.703125,0.134765625,9.0,0.0,7,36,16,842.912231445312,936.032958984375,0,1,faces,female,0,1,faces,A,female,VS,I,108,E01,449.517578125,0
0,0.0,0,26202,3.919921875,0.51171875,10.0,0.0,2,11,17,686.07373046875,287.609436035156,0,1,faces,male,0,1,faces,A,female,VS,I,108,E01,449.517578125,0
0,0.0,0,26219,0.91015625,0.2421875,2.0,1.0,10,57,5,1197.39819335938,358.295593261719,0,1,faces,male,0,1,faces,A,male,VS,F,109,E01,453.716796875,0
0,0.0,1,26220,1.189453125,0.1796875,3.0,1.0,11,58,6,1190.58605957031,414.174987792969,0,1,faces,male,0,1,faces,A,male,VS,F,109,E01,453.716796875,0
0,0.0,0,26222,1.708984375,0.208984375,4.0,1.0,5,23,8,766.648071289062,551.957153320312,0,1,objects,big,0,1,faces,A,male,VS,F,109,E01,453.716796875,0
0,0.0,0,26223,1.974609375,0.138671875,5.0,0.0,6,24,9,741.657043457031,635.239990234375,0,1,faces,female,0,1,faces,A,male,VS,F,109,E01,453.716796875,0
1,0.0,0,26224,2.17578125,0.1328125,6.0,0.0,9,42,10,949.950256347656,629.874206542969,0,1,faces,male,0,1,faces,A,male,VS,F,109,E01,453.716796875,0
1,0.0,0,26225,2.369140625,0.130859375,7.0,0.0,7,25,11,773.353515625,733.525695800781,0,1,faces,female,0,1,faces,A,male,VS,F,109,E01,453.716796875,0
0,0.0,0,26228,3.021484375,0.251953125,10.0,0.0,8,36,14,868.405517578125,950.56982421875,0,1,faces,male,0,1,faces,A,male,VS,F,109,E01,453.716796875,0
0,0.0,0,26231,3.70703125,0.115234375,11.0,0.0,1,8,17,564.044616699219,866.043762207031,0,1,objects,big,0,1,faces,A,male,VS,F,109,E01,453.716796875,0
1,0.0,1,26246,1.07421875,0.1328125,2.0,1.0,4,33,3,873.790283203125,592.269775390625,0,1,objects,small,0,1,objects,A,big,VS,O,110,E01,457.916015625,0
0,0.0,1,26248,1.4453125,0.1640625,3.0,1.0,8,58,5,1183.4609375,478.626159667969,0,1,objects,small,0,1,objects,A,big,VS,O,110,E01,457.916015625,0
0,0.0,0,26251,2.080078125,0.208984375,4.0,1.0,11,69,8,1268.22668457031,594.683837890625,0,1,faces,male,0,1,objects,A,big,VS,O,110,E01,457.916015625,0
0,0.0,0,26252,2.349609375,0.13671875,5.0,0.0,15,79,9,1330.01513671875,720.4423828125,0,1,objects,big,0,1,objects,A,big,VS,O,110,E01,457.916015625,0
0,0.0,0,26254,2.845703125,0.23046875,6.0,0.0,2,9,11,554.898620605469,963.972595214844,0,1,faces,male,0,1,objects,A,big,VS,O,110,E01,457.916015625,0
0,0.0,0,26257,3.53515625,0.2578125,8.0,0.0,1,4,14,566.070251464844,471.656280517578,0,1,faces,female,0,1,objects,A,big,VS,O,110,E01,457.916015625,0
1,0.0,0,26274,0.87890625,0.224609375,2.0,1.0,7,32,5,854.539123535156,583.91552734375,0,1,faces,female,0,1,objects,A,small,VS,O,111,E01,462.115234375,0
0,0.0,0,26275,1.173828125,0.2109375,3.0,1.0,1,7,6,569.265869140625,789.562377929688,0,1,objects,big,0,1,objects,A,small,VS,O,111,E01,462.115234375,0
0,0.0,0,26276,1.458984375,0.228515625,4.0,1.0,13,53,7,1066.49890136719,836.149108886719,0,1,objects,big,0,1,objects,A,small,VS,O,111,E01,462.115234375,0
0,0.0,0,26277,1.75390625,0.162109375,5.0,0.0,9,35,8,829.717224121094,856.56298828125,0,1,faces,female,0,1,objects,A,small,VS,O,111,E01,462.115234375,0
0,0.0,0,26278,1.951171875,0.138671875,6.0,0.0,5,26,9,760.032653808594,857.663208007812,0,1,objects,small,0,1,objects,A,small,VS,O,111,E01,462.115234375,0
0,0.0,1,26279,2.1640625,0.134765625,7.0,0.0,12,49,10,1013.86584472656,427.018188476562,0,1,faces,male,0,1,objects,A,small,VS,O,111,E01,462.115234375,0
0,0.0,0,26281,2.51953125,0.173828125,8.0,0.0,15,75,12,1399.01501464844,377.106781005859,0,1,faces,male,0,1,objects,A,small,VS,O,111,E01,462.115234375,0
0,0.0,0,26283,3.056640625,0.1953125,10.0,0.0,4,14,14,675.33154296875,569.547119140625,0,1,objects,small,0,1,objects,A,small,VS,O,111,E01,462.115234375,0
0,0.0,0,26284,3.32421875,0.22265625,11.0,0.0,3,11,15,652.724304199219,270.115325927734,0,1,faces,female,0,1,objects,A,small,VS,O,111,E01,462.115234375,0
1,1.0,0,26398,0.482421875,0.203125,2.0,1.0,2,2,2,566.635192871094,193.745788574219,0,1,objects,small,1,1,faces,P,female,VS,I,116,E01,483.111328125,1
0,1.0,0,26403,1.5234375,0.2734375,5.0,0.0,3,3,7,569.898620605469,329.630767822266,0,1,faces,male,1,1,faces,P,female,VS,I,116,E01,483.111328125,1
1,1.0,0,26406,2.21875,0.287109375,7.0,0.0,10,41,10,981.558044433594,539.688171386719,0,1,faces,male,1,1,faces,P,female,VS,I,116,E01,483.111328125,1
0,0.0,0,26411,3.791015625,0.111328125,10.0,0.0,5,16,15,669.474182128906,744.315612792969,0,1,objects,big,1,1,faces,P,female,VS,I,116,E01,483.111328125,0
0,1.0,0,26428,0.654296875,0.212890625,2.0,1.0,1,1,4,564.562438964844,138.441635131836,0,1,objects,big,1,1,objects,P,small,VS,O,117,E01,487.310546875,1
0,1.0,0,26448,0.98828125,0.279296875,2.0,1.0,6,29,5,851.335693359375,225.770843505859,0,1,faces,female,1,1,faces,P,male,VS,I,118,E01,491.509765625,1
0,1.0,0,26449,1.3359375,0.21484375,3.0,1.0,1,2,6,573.022583007812,222.873153686523,0,1,faces,male,1,1,faces,P,male,VS,I,118,E01,491.509765625,1
0,1.0,0,26450,1.60546875,0.181640625,4.0,1.0,3,14,7,637.7646484375,502.627899169922,0,1,objects,small,1,1,faces,P,male,VS,I,118,E01,491.509765625,1
0,1.0,0,26451,1.8828125,0.248046875,5.0,0.0,11,50,8,1051.80993652344,522.511535644531,0,1,faces,female,1,1,faces,P,male,VS,I,118,E01,491.509765625,1
0,1.0,0,26470,1.1328125,0.236328125,2.0,1.0,12,58,4,1162.42626953125,428.826263427734,0,1,faces,male,1,1,objects,P,small,VS,O,119,E01,495.708984375,1
0,1.0,0,26471,1.431640625,0.345703125,3.0,1.0,14,77,5,1405.8720703125,534.388244628906,0,1,objects,small,1,1,objects,P,small,VS,O,119,E01,495.708984375,1
0,1.0,0,26473,2.091796875,0.130859375,4.0,1.0,8,24,7,719.328796386719,656.810424804688,0,1,faces,female,1,1,objects,P,small,VS,O,119,E01,495.708984375,1
0,1.0,0,26474,2.283203125,0.220703125,5.0,0.0,6,17,8,659.110107421875,831.48681640625,0,1,faces,male,1,1,objects,P,small,VS,O,119,E01,495.708984375,1
0,1.0,0,26524,1.369140625,0.25390625,2.0,1.0,3,22,7,782.97607421875,464.068481445312,0,1,faces,female,1,1,faces,P,male,VS,I,121,E01,504.107421875,1
0,1.0,0,26526,1.853515625,0.158203125,3.0,1.0,6,34,9,858.964965820312,731.640625,0,1,faces,male,1,1,faces,P,male,VS,I,121,E01,504.107421875,1
0,1.0,0,26527,2.052734375,0.150390625,4.0,1.0,8,43,10,956.240234375,740.650390625,0,1,faces,female,1,1,faces,P,male,VS,I,121,E01,504.107421875,1
0,1.0,0,26528,2.248046875,0.236328125,5.0,0.0,10,53,11,1050.80407714844,840.283386230469,0,1,objects,big,1,1,faces,P,male,VS,I,121,E01,504.107421875,1
0,1.0,1,26529,2.560546875,0.12890625,6.0,0.0,1,9,12,596.355407714844,949.222900390625,0,1,faces,male,1,1,faces,P,male,VS,I,121,E01,504.107421875,1
0,1.0,0,26531,2.86328125,0.154296875,7.0,0.0,4,27,14,711.604187011719,950.149841308594,0,1,faces,female,1,1,faces,P,male,VS,I,121,E01,504.107421875,1
0,1.0,1,26532,3.087890625,0.15625,8.0,0.0,12,63,15,1127.728515625,973.958129882812,0,1,objects,big,1,1,faces,P,male,VS,I,121,E01,504.107421875,1
0,0.0,1,26575,0.654296875,0.15234375,2.0,1.0,12,65,3,1230.6552734375,224.656204223633,0,1,objects,small,0,1,faces,A,female,VS,I,123,E01,512.505859375,0
0,0.0,0,26577,1.033203125,0.3515625,3.0,1.0,11,57,5,1167.34460449219,333.054565429688,0,1,faces,female,0,1,faces,A,female,VS,I,123,E01,512.505859375,0
0,0.0,1,26578,1.44921875,0.169921875,4.0,1.0,14,76,6,1380.83984375,424.518768310547,0,1,faces,male,0,1,faces,A,female,VS,I,123,E01,512.505859375,0
0,0.0,0,26580,1.80078125,0.283203125,5.0,0.0,7,42,8,969.765502929688,600.605712890625,0,1,faces,female,0,1,faces,A,female,VS,I,123,E01,512.505859375,0
0,0.0,0,26581,2.123046875,0.10546875,6.0,0.0,9,51,9,1041.73742675781,612.438598632812,0,1,faces,female,0,1,faces,A,female,VS,I,123,E01,512.505859375,0
0,0.0,0,26582,2.306640625,0.203125,7.0,0.0,2,6,10,593.498107910156,634.113220214844,0,1,objects,small,0,1,faces,A,female,VS,I,123,E01,512.505859375,0
0,0.0,0,26583,2.578125,0.169921875,8.0,0.0,5,26,11,764.706420898438,794.03369140625,0,1,objects,big,0,1,faces,A,female,VS,I,123,E01,512.505859375,0
0,0.0,0,26584,2.79296875,0.15625,9.0,0.0,8,44,12,915.168151855469,803.224548339844,0,1,objects,big,0,1,faces,A,female,VS,I,123,E01,512.505859375,0
0,0.0,0,26585,2.97265625,0.138671875,10.0,0.0,6,35,13,859.302185058594,809.919982910156,0,1,faces,female,0,1,faces,A,female,VS,I,123,E01,512.505859375,0
0,0.0,0,26587,3.376953125,0.111328125,11.0,0.0,15,81,15,1317.20495605469,898.977905273438,0,1,faces,male,0,1,faces,A,female,VS,I,123,E01,512.505859375,0
0,0.0,1,26590,3.806640625,0.181640625,12.0,0.0,3,9,18,552.666198730469,933.069885253906,0,1,faces,female,0,1,faces,A,female,VS,I,123,E01,512.505859375,0
0,0.0,0,26604,0.5390625,0.1328125,2.0,1.0,6,38,2,945.79931640625,190.768218994141,0,1,objects,small,0,1,objects,A,big,VS,O,124,E01,516.705078125,0
0,0.0,1,26605,0.744140625,0.111328125,3.0,1.0,15,76,3,1352.90649414062,395.196197509766,0,1,objects,big,0,1,objects,A,big,VS,O,124,E01,516.705078125,0
1,0.0,0,26607,0.970703125,0.1640625,4.0,1.0,11,67,5,1299.10815429688,434.398101806641,0,1,objects,big,0,1,objects,A,big,VS,O,124,E01,516.705078125,0
1,0.0,0,26608,1.203125,0.236328125,5.0,0.0,7,41,6,969.421569824219,535.873962402344,0,1,faces,male,0,1,objects,A,big,VS,O,124,E01,516.705078125,0
0,0.0,0,26609,1.490234375,0.173828125,6.0,0.0,8,43,7,947.678100585938,770.906188964844,0,1,faces,male,0,1,objects,A,big,VS,O,124,E01,516.705078125,0
0,0.0,0,26610,1.73046875,0.193359375,7.0,0.0,1,18,8,710.237121582031,930.767456054688,0,1,faces,male,0,1,objects,A,big,VS,O,124,E01,516.705078125,0
0,0.0,1,26611,1.998046875,0.158203125,8.0,0.0,12,71,9,1222.07653808594,861.985046386719,0,1,faces,female,0,1,objects,A,big,VS,O,124,E01,516.705078125,0
0,0.0,0,26613,2.3359375,0.1171875,9.0,0.0,10,62,11,1157.17504882812,829.594848632812,0,1,objects,big,0,1,objects,A,big,VS,O,124,E01,516.705078125,0
0,0.0,0,26614,2.541015625,0.30078125,10.0,0.0,9,56,12,1145.36596679688,266.089904785156,0,1,faces,male,0,1,objects,A,big,VS,O,124,E01,516.705078125,0
0,1.0,0,26633,1.40625,0.185546875,2.0,1.0,13,64,6,1232.26782226562,188.073196411133,0,1,faces,male,1,1,faces,P,female,VS,F,125,E01,520.904296875,1
0,0.0,0,26658,1.072265625,0.220703125,2.0,1.0,1,3,6,553.329772949219,361.4208984375,0,1,objects,small,0,1,faces,P,female,VS,F,126,E01,525.103515625,0
0,0.0,0,26659,1.34375,0.2265625,3.0,1.0,3,23,7,731.544982910156,535.438049316406,0,1,faces,male,0,1,faces,P,female,VS,F,126,E01,525.103515625,0
0,0.0,0,26661,1.87109375,0.140625,4.0,1.0,5,34,9,856.403198242188,749.020629882812,0,1,faces,female,0,1,faces,P,female,VS,F,126,E01,525.103515625,0
0,0.0,0,26662,2.080078125,0.2734375,5.0,0.0,2,7,10,554.871704101562,754.557434082031,0,1,faces,male,0,1,faces,P,female,VS,F,126,E01,525.103515625,0
1,0.0,0,26664,2.56640625,0.234375,6.0,0.0,11,54,12,1044.09155273438,919.149658203125,0,1,faces,female,0,1,faces,P,female,VS,F,126,E01,525.103515625,0
0,0.0,0,26665,2.8671875,0.240234375,7.0,0.0,13,71,13,1265.92883300781,849.805969238281,0,1,faces,male,0,1,faces,P,female,VS,F,126,E01,525.103515625,0
0,0.0,0,26668,3.501953125,0.1796875,9.0,0.0,15,80,16,1370.92028808594,870.126953125,0,1,faces,male,0,1,faces,P,female,VS,F,126,E01,525.103515625,0
0,0.0,0,26669,3.75,0.14453125,10.0,0.0,12,60,17,1138.13537597656,649.437622070312,0,1,faces,female,0,1,faces,P,female,VS,F,126,E01,525.103515625,0
0,1.0,0,26719,1.216796875,0.1875,2.0,1.0,12,74,7,1371.41015625,276.987731933594,0,1,faces,male,1,1,faces,P,female,VS,F,128,E01,533.501953125,1
0,1.0,0,26720,1.447265625,0.29296875,3.0,1.0,13,75,8,1373.9375,360.9306640625,0,1,faces,male,1,1,faces,P,female,VS,F,128,E01,533.501953125,1
0,1.0,0,26721,1.783203125,0.109375,4.0,1.0,14,76,9,1394.30407714844,461.801177978516,0,1,faces,female,1,1,faces,P,female,VS,F,128,E01,533.501953125,1
0,1.0,0,26722,1.966796875,0.19921875,5.0,0.0,6,32,10,896.250671386719,571.627502441406,0,1,faces,male,1,1,faces,P,female,VS,F,128,E01,533.501953125,1
0,1.0,0,26724,2.353515625,0.162109375,6.0,0.0,1,3,12,571.526794433594,378.707763671875,0,1,objects,small,1,1,faces,P,female,VS,F,128,E01,533.501953125,1
0,0.0,1,26743,1.146484375,0.15234375,2.0,1.0,5,21,5,733.063293457031,297.295288085938,0,1,faces,female,0,1,faces,A,male,VS,F,129,E01,537.701171875,0
0,0.0,0,26745,1.61328125,0.201171875,3.0,1.0,12,48,7,1027.10852050781,349.640747070312,0,1,objects,small,0,1,faces,A,male,VS,F,129,E01,537.701171875,0
0,0.0,0,26746,1.88671875,0.234375,4.0,1.0,8,32,8,852.098510742188,516.085144042969,0,1,objects,small,0,1,faces,A,male,VS,F,129,E01,537.701171875,0
0,0.0,0,26747,2.189453125,0.25390625,5.0,0.0,1,4,9,563.435424804688,463.549255371094,0,1,faces,male,0,1,faces,A,male,VS,F,129,E01,537.701171875,0
0,0.0,0,26749,2.69140625,0.1640625,6.0,0.0,6,25,11,735.981323242188,739.365173339844,0,1,faces,female,0,1,faces,A,male,VS,F,129,E01,537.701171875,0
1,0.0,0,26750,2.923828125,0.18359375,7.0,0.0,7,27,12,794.98046875,935.767883300781,0,1,faces,female,0,1,faces,A,male,VS,F,129,E01,537.701171875,0
0,0.0,0,26751,3.140625,0.1328125,8.0,0.0,9,36,13,833.415710449219,947.004516601562,0,1,faces,female,0,1,faces,A,male,VS,F,129,E01,537.701171875,0
0,0.0,0,26754,3.73046875,0.15625,10.0,0.0,11,45,16,922.6943359375,930.412963867188,0,1,faces,male,0,1,faces,A,male,VS,F,129,E01,537.701171875,0
0,0.0,0,26817,1.12890625,0.234375,2.0,1.0,5,28,2,823.940063476562,180.083587646484,0,1,faces,female,0,1,faces,P,male,VS,I,132,E01,550.298828125,0
0,0.0,0,26818,1.439453125,0.228515625,3.0,1.0,9,48,3,1019.10614013672,363.783782958984,0,1,faces,male,0,1,faces,P,male,VS,I,132,E01,550.298828125,0
1,0.0,0,26819,1.71875,0.25390625,4.0,1.0,10,50,4,1069.05541992188,528.714477539062,0,1,faces,female,0,1,faces,P,male,VS,I,132,E01,550.298828125,0
0,0.0,0,26820,2.033203125,0.220703125,5.0,0.0,8,44,5,947.359985351562,831.34716796875,0,1,objects,big,0,1,faces,P,male,VS,I,132,E01,550.298828125,0
0,0.0,0,26822,2.419921875,0.2578125,6.0,0.0,4,26,7,753.912658691406,839.700988769531,0,1,faces,male,0,1,faces,P,male,VS,I,132,E01,550.298828125,0
0,0.0,0,26824,2.875,0.2578125,7.0,0.0,2,6,9,536.778686523438,633.232055664062,0,1,faces,female,0,1,faces,P,male,VS,I,132,E01,550.298828125,0
0,0.0,0,26826,3.431640625,0.2265625,8.0,0.0,14,68,11,1262.73059082031,527.097473144531,0,1,faces,female,0,1,faces,P,male,VS,I,132,E01,550.298828125,0
0,0.0,1,26872,1.3828125,0.12890625,2.0,1.0,14,71,7,1262.71020507812,828.5400390625,0,1,objects,small,0,1,objects,A,small,VS,O,134,E01,558.697265625,0
0,0.0,1,26873,1.58984375,0.201171875,3.0,1.0,3,6,8,568.947143554688,663.026611328125,0,1,faces,female,0,1,objects,A,small,VS,O,134,E01,558.697265625,0
0,0.0,0,26875,1.91015625,0.138671875,4.0,1.0,2,5,10,530.849060058594,570.848510742188,0,1,objects,small,0,1,objects,A,small,VS,O,134,E01,558.697265625,0
0,0.0,0,26876,2.150390625,0.169921875,5.0,0.0,8,41,11,989.945129394531,526.507568359375,0,1,objects,small,0,1,objects,A,small,VS,O,134,E01,558.697265625,0
0,0.0,0,26879,2.83984375,0.193359375,6.0,0.0,11,56,14,1144.0068359375,264.800506591797,0,1,objects,big,0,1,objects,A,small,VS,O,134,E01,558.697265625,0
0,1.0,0,26923,1.39453125,0.216796875,2.0,1.0,4,27,5,808.619506835938,891.692504882812,0,1,faces,male,1,1,objects,P,small,VS,O,136,E01,567.095703125,1
0,1.0,0,26925,1.99609375,0.150390625,3.0,1.0,12,69,7,1277.42578125,650.456665039062,0,1,faces,male,1,1,objects,P,small,VS,O,136,E01,567.095703125,1
0,1.0,0,26926,2.17578125,0.1640625,4.0,1.0,11,68,8,1280.84851074219,577.437438964844,0,1,objects,small,1,1,objects,P,small,VS,O,136,E01,567.095703125,1
0,1.0,0,26927,2.443359375,0.3125,5.0,0.0,10,56,9,1160.91186523438,276.955200195312,0,1,faces,female,1,1,objects,P,small,VS,O,136,E01,567.095703125,1
0,0.0,0,26946,0.6796875,0.236328125,2.0,1.0,4,19,4,727.494262695312,170.005767822266,0,1,faces,male,0,1,faces,A,female,VS,F,137,E01,571.294921875,0
0,0.0,0,26947,0.9609375,0.1328125,3.0,1.0,8,29,5,840.959350585938,249.95002746582,0,1,objects,small,0,1,faces,A,female,VS,F,137,E01,571.294921875,0
0,0.0,0,26948,1.189453125,0.181640625,4.0,1.0,15,74,6,1340.89880371094,261.619781494141,0,1,objects,big,0,1,faces,A,female,VS,F,137,E01,571.294921875,0
0,0.0,0,26949,1.447265625,0.177734375,5.0,0.0,12,58,7,1164.14868164062,416.049926757812,0,1,objects,big,0,1,faces,A,female,VS,F,137,E01,571.294921875,0
0,0.0,0,26951,2.08203125,0.2265625,7.0,0.0,6,24,9,744.143615722656,663.945190429688,0,1,faces,female,0,1,faces,A,female,VS,F,137,E01,571.294921875,0
0,0.0,0,26952,2.3515625,0.1484375,8.0,0.0,7,25,10,733.742065429688,764.01513671875,0,1,objects,small,0,1,faces,A,female,VS,F,137,E01,571.294921875,0
0,0.0,1,26953,2.568359375,0.1484375,9.0,0.0,3,18,11,652.189514160156,934.421997070312,0,1,faces,female,0,1,faces,A,female,VS,F,137,E01,571.294921875,0
0,0.0,0,26955,2.8671875,0.255859375,10.0,0.0,11,43,13,932.605773925781,748.862365722656,0,1,faces,female,0,1,faces,A,female,VS,F,137,E01,571.294921875,0
0,0.0,0,26956,3.189453125,0.201171875,11.0,0.0,14,71,14,1263.42919921875,828.063232421875,0,1,faces,female,0,1,faces,A,female,VS,F,137,E01,571.294921875,0
0,0.0,0,26957,3.474609375,0.212890625,12.0,0.0,1,8,15,516.035522460938,882.6455078125,0,1,objects,big,0,1,faces,A,female,VS,F,137,E01,571.294921875,0
0,0.0,0,27072,0.55078125,0.193359375,2.0,1.0,5,28,2,858.600769042969,177.16552734375,0,1,objects,small,0,1,faces,A,male,VS,I,142,E01,592.291015625,0
0,0.0,0,27073,0.8046875,0.23046875,3.0,1.0,9,46,3,1045.02905273438,180.026168823242,0,1,faces,male,0,1,faces,A,male,VS,I,142,E01,592.291015625,0
0,0.0,0,27074,1.1015625,0.138671875,4.0,1.0,14,65,4,1279.59655761719,251.668380737305,0,1,faces,female,0,1,faces,A,male,VS,I,142,E01,592.291015625,0
0,0.0,0,27076,1.455078125,0.224609375,5.0,0.0,10,57,6,1130.53039550781,351.304504394531,0,1,objects,big,0,1,faces,A,male,VS,I,142,E01,592.291015625,0
0,0.0,0,27078,1.8984375,0.134765625,6.0,0.0,3,22,8,765.43505859375,448.277954101562,0,1,faces,female,0,1,faces,A,male,VS,I,142,E01,592.291015625,0
0,0.0,0,27079,2.072265625,0.1875,7.0,0.0,6,32,9,846.096862792969,521.928405761719,0,1,faces,female,0,1,faces,A,male,VS,I,142,E01,592.291015625,0
0,0.0,0,27080,2.306640625,0.197265625,8.0,0.0,2,15,10,671.423095703125,631.221435546875,0,1,faces,female,0,1,faces,A,male,VS,I,142,E01,592.291015625,0
0,0.0,0,27081,2.572265625,0.173828125,9.0,0.0,4,26,11,751.347290039062,855.840148925781,0,1,objects,big,0,1,faces,A,male,VS,I,142,E01,592.291015625,0
0,0.0,1,27082,2.80859375,0.1875,10.0,0.0,8,45,12,955.5390625,919.718200683594,0,1,faces,male,0,1,faces,A,male,VS,I,142,E01,592.291015625,0
0,0.0,1,27084,3.115234375,0.1484375,11.0,0.0,12,62,14,1150.44104003906,877.899353027344,0,1,faces,male,0,1,faces,A,male,VS,I,142,E01,592.291015625,0
0,0.0,1,27086,3.490234375,0.150390625,12.0,0.0,15,69,16,1262.482421875,668.879272460938,0,1,faces,female,0,1,faces,A,male,VS,I,142,E01,592.291015625,0
0,0.0,0,27088,3.794921875,0.197265625,13.0,0.0,11,58,18,1167.95288085938,454.6484375,0,1,faces,male,0,1,faces,A,male,VS,I,142,E01,592.291015625,0
0,1.0,0,27137,0.470703125,0.185546875,2.0,1.0,8,56,2,1162.59167480469,223.639694213867,0,1,objects,small,1,1,objects,P,small,VS,O,144,E01,600.689453125,1
0,0.0,1,27328,0.541015625,0.119140625,2.0,1.0,10,64,3,1212.83947753906,179.914733886719,0,1,faces,female,0,1,faces,A,female,VS,F,145,E01,604.888671875,0
0,0.0,0,27331,1.056640625,0.32421875,3.0,1.0,5,40,6,956.105895996094,407.341033935547,0,1,faces,female,0,1,faces,A,female,VS,F,145,E01,604.888671875,0
0,0.0,0,27332,1.439453125,0.203125,4.0,1.0,7,50,7,1071.6953125,511.943908691406,0,1,faces,female,0,1,faces,A,female,VS,F,145,E01,604.888671875,0
0,0.0,0,27333,1.705078125,0.1953125,5.0,0.0,11,68,8,1287.63793945312,513.314392089844,0,1,faces,female,0,1,faces,A,female,VS,F,145,E01,604.888671875,0
0,0.0,0,27334,1.939453125,0.232421875,6.0,0.0,15,77,9,1352.36511230469,515.012512207031,0,1,faces,male,0,1,faces,A,female,VS,F,145,E01,604.888671875,0
0,0.0,0,27336,2.419921875,0.193359375,7.0,0.0,9,62,11,1179.51171875,808.671875,0,1,objects,small,0,1,faces,A,female,VS,F,145,E01,604.888671875,0
0,0.0,0,27337,2.6640625,0.22265625,8.0,0.0,8,54,12,1025.03039550781,898.12841796875,0,1,faces,male,0,1,faces,A,female,VS,F,145,E01,604.888671875,0
0,0.0,0,27338,2.955078125,0.216796875,9.0,0.0,3,17,13,651.870849609375,815.73193359375,0,1,faces,male,0,1,faces,A,female,VS,F,145,E01,604.888671875,0
0,0.0,1,27339,3.22265625,0.171875,10.0,0.0,1,6,14,548.766357421875,654.400695800781,0,1,faces,female,0,1,faces,A,female,VS,F,145,E01,604.888671875,0
0,0.0,0,27341,3.55859375,0.1640625,11.0,0.0,2,16,16,637.804443359375,724.103759765625,0,1,faces,male,0,1,faces,A,female,VS,F,145,E01,604.888671875,0
0,0.0,0,27359,0.896484375,0.244140625,2.0,1.0,13,75,4,1359.591796875,362.771942138672,0,1,objects,small,0,1,objects,A,small,VS,O,146,E01,609.087890625,0
0,0.0,0,27360,1.1796875,0.19921875,3.0,1.0,10,67,5,1248.32507324219,401.481018066406,0,1,faces,female,0,1,objects,A,small,VS,O,146,E01,609.087890625,0
0,0.0,0,27361,1.4453125,0.244140625,4.0,1.0,7,42,6,917.459716796875,598.707092285156,0,1,faces,female,0,1,objects,A,small,VS,O,146,E01,609.087890625,0
1,0.0,0,27363,1.953125,0.20703125,5.0,0.0,12,70,8,1286.69665527344,699.063659667969,0,1,objects,big,0,1,objects,A,small,VS,O,146,E01,609.087890625,0
0,0.0,0,27366,2.712890625,0.154296875,6.0,0.0,15,79,11,1339.62817382812,701.864440917969,0,1,faces,female,0,1,objects,A,small,VS,O,146,E01,609.087890625,0
0,0.0,0,27370,3.79296875,0.21484375,8.0,0.0,2,20,15,767.211364746094,260.016021728516,0,1,faces,female,0,1,objects,A,small,VS,O,146,E01,609.087890625,0
0,1.0,0,27386,1.267578125,0.31640625,2.0,1.0,12,55,6,1174.64147949219,156.243988037109,0,1,faces,female,1,1,faces,P,female,VS,F,147,E01,613.287109375,1
0,1.0,0,27389,2.041015625,0.150390625,3.0,1.0,5,20,9,798.002563476562,240.397491455078,0,1,faces,male,1,1,faces,P,female,VS,F,147,E01,613.287109375,1
0,1.0,0,27410,1.017578125,0.138671875,2.0,1.0,4,20,4,720.695861816406,194.350250244141,0,1,faces,male,1,1,faces,P,male,VS,F,148,E01,617.486328125,1
0,1.0,1,27411,1.185546875,0.177734375,3.0,1.0,3,11,5,676.152404785156,235.807952880859,0,1,faces,female,1,1,faces,P,male,VS,F,148,E01,617.486328125,1
0,1.0,0,27413,1.5546875,0.25390625,4.0,1.0,5,23,7,729.996887207031,511.102111816406,0,1,faces,male,1,1,faces,P,male,VS,F,148,E01,617.486328125,1
0,1.0,0,27414,1.869140625,0.212890625,5.0,0.0,6,42,8,956.059326171875,635.0419921875,0,1,objects,small,1,1,faces,P,male,VS,F,148,E01,617.486328125,1
0,1.0,0,27415,2.1328125,0.1796875,6.0,0.0,8,52,9,1065.44091796875,694.141296386719,0,1,faces,female,1,1,faces,P,male,VS,F,148,E01,617.486328125,1
0,1.0,0,27429,0.80078125,0.2734375,2.0,1.0,10,50,3,1086.927734375,511.585876464844,0,1,faces,female,1,1,objects,P,small,VS,O,149,E01,621.685546875,1
0,1.0,0,27430,1.111328125,0.224609375,3.0,1.0,9,42,4,933.024841308594,604.525634765625,0,1,objects,small,1,1,objects,P,small,VS,O,149,E01,621.685546875,1
0,1.0,1,27433,1.861328125,0.162109375,4.0,1.0,3,17,7,695.50732421875,849.925537109375,0,1,faces,female,1,1,objects,P,small,VS,O,149,E01,621.685546875,1
0,1.0,0,27492,1.033203125,0.119140625,2.0,1.0,6,38,5,936.087829589844,204.736633300781,0,1,objects,big,1,1,faces,P,female,VS,I,151,E01,630.083984375,1
0,1.0,0,27493,1.18359375,0.248046875,3.0,1.0,9,47,6,1068.72583007812,236.772567749023,0,1,faces,female,1,1,faces,P,female,VS,I,151,E01,630.083984375,1
0,1.0,0,27494,1.466796875,0.181640625,4.0,1.0,11,56,7,1149.46301269531,280.975219726562,0,1,faces,female,1,1,faces,P,female,VS,I,151,E01,630.083984375,1
0,1.0,0,27595,0.537109375,0.439453125,2.0,1.0,2,10,2,664.95849609375,158.272964477539,0,1,faces,female,1,1,faces,P,male,VS,F,155,E01,646.880859375,1
0,1.0,0,27597,1.375,0.234375,3.0,1.0,10,57,4,1153.73217773438,303.288635253906,0,1,faces,male,1,1,faces,P,male,VS,F,155,E01,646.880859375,1
0,1.0,0,27598,1.65625,0.150390625,4.0,1.0,12,75,5,1332.32995605469,344.997497558594,0,1,faces,male,1,1,faces,P,male,VS,F,155,E01,646.880859375,1
1,1.0,0,27620,0.609375,0.302734375,2.0,1.0,1,1,3,549.603149414062,168.327026367188,0,1,faces,male,1,1,faces,P,male,VS,F,156,E01,651.080078125,1
1,1.0,0,27621,0.9609375,0.111328125,3.0,1.0,2,2,4,524.502136230469,225.683090209961,0,1,faces,male,1,1,faces,P,male,VS,F,156,E01,651.080078125,1
0,0.0,0,27650,0.861328125,0.35546875,2.0,1.0,1,2,5,526.51318359375,217.635726928711,0,1,faces,male,0,1,faces,A,male,VS,I,157,E01,655.279296875,0
0,0.0,0,27651,1.3125,0.18359375,3.0,1.0,9,29,6,824.034484863281,228.590530395508,0,1,faces,female,0,1,faces,A,male,VS,I,157,E01,655.279296875,0
0,0.0,0,27653,1.755859375,0.162109375,4.0,1.0,11,39,8,937.329345703125,343.145111083984,0,1,objects,small,0,1,faces,A,male,VS,I,157,E01,655.279296875,0
0,0.0,1,27654,1.96875,0.177734375,5.0,0.0,13,47,9,1051.78100585938,280.234771728516,0,1,faces,male,0,1,faces,A,male,VS,I,157,E01,655.279296875,0
0,0.0,0,27656,2.439453125,0.244140625,6.0,0.0,10,31,11,874.879699707031,436.154998779297,0,1,objects,big,0,1,faces,A,male,VS,I,157,E01,655.279296875,0
0,0.0,0,27657,2.728515625,0.171875,7.0,0.0,12,41,12,952.008605957031,520.015869140625,0,1,faces,male,0,1,faces,A,male,VS,I,157,E01,655.279296875,0
0,0.0,0,27658,2.9453125,0.298828125,8.0,0.0,14,51,13,1061.17468261719,617.853454589844,0,1,faces,female,0,1,faces,A,male,VS,I,157,E01,655.279296875,0
0,0.0,0,27659,3.314453125,0.24609375,9.0,0.0,7,25,14,738.977722167969,739.613159179688,0,1,faces,male,0,1,faces,A,male,VS,I,157,E01,655.279296875,0
0,0.0,0,27660,3.625,0.265625,10.0,0.0,5,9,15,517.140747070312,904.191528320312,0,1,faces,male,0,1,faces,A,male,VS,I,157,E01,655.279296875,0
0,0.0,0,27712,0.896484375,0.15625,2.0,1.0,2,10,4,688.129028320312,174.018402099609,0,1,objects,small,0,1,faces,A,female,VS,I,160,E01,667.876953125,0
0,0.0,1,27713,1.076171875,0.18359375,3.0,1.0,4,19,5,711.819213867188,169.469497680664,0,1,faces,male,0,1,faces,A,female,VS,I,160,E01,667.876953125,0
0,0.0,0,27716,1.80078125,0.189453125,4.0,1.0,12,65,8,1271.55078125,262.580291748047,0,1,faces,male,0,1,faces,A,female,VS,I,160,E01,667.876953125,0
0,0.0,0,27717,2.017578125,0.1328125,5.0,0.0,14,74,9,1332.72265625,276.738037109375,0,1,faces,male,0,1,faces,A,female,VS,I,160,E01,667.876953125,0
0,0.0,0,27719,2.470703125,0.14453125,6.0,0.0,5,22,11,770.455322265625,447.497467041016,0,1,faces,female,0,1,faces,A,female,VS,I,160,E01,667.876953125,0
0,0.0,0,27723,3.423828125,0.265625,7.0,0.0,10,62,15,1169.83483886719,836.840515136719,0,1,faces,female,0,1,faces,A,female,VS,I,160,E01,667.876953125,0
0,0.0,0,27725,3.9453125,0.16796875,8.0,0.0,11,63,17,1128.18872070312,934.501831054688,0,1,faces,female,0,1,faces,A,female,VS,I,160,E01,667.876953125,0
0,1.0,0,27742,0.556640625,0.146484375,2.0,1.0,1,4,3,559.467529296875,436.854705810547,0,1,objects,small,1,1,faces,P,female,VS,I,161,E01,672.076171875,1
0,1.0,0,27745,1.3125,0.1953125,4.0,1.0,9,56,6,1145.92077636719,288.006683349609,0,1,faces,male,1,1,faces,P,female,VS,I,161,E01,672.076171875,1
0,1.0,0,27746,1.55078125,0.392578125,5.0,0.0,13,65,7,1274.11633300781,278.719818115234,0,1,faces,male,1,1,faces,P,female,VS,I,161,E01,672.076171875,1
0,1.0,0,27748,2.25,0.18359375,6.0,0.0,8,51,9,1075.38000488281,634.308349609375,0,1,faces,female,1,1,faces,P,female,VS,I,161,E01,672.076171875,1
0,1.0,0,27749,2.474609375,0.2265625,7.0,0.0,11,61,10,1161.76928710938,693.974609375,0,1,faces,male,1,1,faces,P,female,VS,I,161,E01,672.076171875,1
0,0.0,0,27852,1.88671875,0.115234375,2.0,1.0,3,17,9,655.52001953125,805.757995605469,0,1,faces,female,0,1,objects,A,big,VS,O,165,E01,688.873046875,0
0,0.0,0,27855,2.51953125,0.205078125,3.0,1.0,10,62,12,1189.82543945312,808.820922851562,0,1,faces,male,0,1,objects,A,big,VS,O,165,E01,688.873046875,0
0,0.0,0,27859,3.51953125,0.150390625,4.0,1.0,2,14,16,656.102844238281,521.034912109375,0,1,faces,male,0,1,objects,A,big,VS,O,165,E01,688.873046875,0
0,0.0,1,27880,0.53125,0.130859375,2.0,1.0,2,11,3,609.935546875,272.058929443359,0,1,faces,male,0,1,faces,A,male,VS,F,166,E01,693.072265625,0
0,0.0,0,27882,0.88671875,0.19921875,3.0,1.0,1,3,5,520.718994140625,301.488403320312,0,1,faces,female,0,1,faces,A,male,VS,F,166,E01,693.072265625,0
0,0.0,0,27883,1.17578125,0.259765625,4.0,1.0,3,14,6,700.294494628906,519.80859375,0,1,faces,female,0,1,faces,A,male,VS,F,166,E01,693.072265625,0
0,0.0,0,27884,1.484375,0.259765625,5.0,0.0,6,24,7,741.2109375,622.323852539062,0,1,faces,male,0,1,faces,A,male,VS,F,166,E01,693.072265625,0
0,0.0,0,27885,1.787109375,0.14453125,6.0,0.0,10,33,8,816.359436035156,624.116638183594,0,1,faces,male,0,1,faces,A,male,VS,F,166,E01,693.072265625,0
1,0.0,0,27886,1.970703125,0.208984375,7.0,0.0,7,25,9,781.140991210938,775.780517578125,0,1,objects,small,0,1,faces,A,male,VS,F,166,E01,693.072265625,0
0,0.0,1,27887,2.296875,0.150390625,8.0,0.0,4,17,10,661.401977539062,856.187805175781,0,1,faces,male,0,1,faces,A,male,VS,F,166,E01,693.072265625,0
0,0.0,0,27890,3.064453125,0.10546875,9.0,0.0,15,63,13,1153.14904785156,908.616943359375,0,1,faces,female,0,1,faces,A,male,VS,F,166,E01,693.072265625,0
0,0.0,1,27893,3.58203125,0.17578125,11.0,0.0,9,32,16,811.156677246094,586.185241699219,0,1,objects,big,0,1,faces,A,male,VS,F,166,E01,693.072265625,0
0,0.0,0,27913,1.1953125,0.2421875,3.0,1.0,9,40,5,948.219055175781,419.642944335938,0,1,faces,male,1,1,faces,P,male,VS,I,167,E01,697.271484375,0
0,0.0,0,27914,1.48828125,0.19140625,4.0,1.0,12,48,6,1064.59838867188,359.000244140625,0,1,faces,male,1,1,faces,P,male,VS,I,167,E01,697.271484375,0
1,0.0,0,27917,2.326171875,0.291015625,5.0,0.0,2,5,9,550.909484863281,564.446533203125,0,1,faces,female,1,1,faces,P,male,VS,I,167,E01,697.271484375,0
0,0.0,0,27923,3.853515625,0.13671875,7.0,0.0,4,17,15,626.544189453125,857.550842285156,0,1,faces,male,1,1,faces,P,male,VS,I,167,E01,697.271484375,0
0,1.0,0,27961,0.439453125,0.169921875,2.0,1.0,8,38,2,933.937561035156,276.009582519531,0,1,faces,female,1,1,faces,P,female,VS,I,169,E01,705.669921875,1
0,1.0,1,27962,0.6796875,0.134765625,3.0,1.0,12,66,3,1259.06884765625,331.159759521484,0,1,faces,male,1,1,faces,P,female,VS,I,169,E01,705.669921875,1
0,1.0,0,27964,0.998046875,0.16796875,4.0,1.0,13,68,5,1273.81945800781,493.272155761719,0,1,objects,small,1,1,faces,P,female,VS,I,169,E01,705.669921875,1
0,1.0,1,27965,1.236328125,0.3203125,5.0,0.0,6,32,6,888.273254394531,547.81494140625,0,1,objects,small,1,1,faces,P,female,VS,I,169,E01,705.669921875,1
0,1.0,0,28008,0.98046875,0.146484375,2.0,1.0,13,58,5,1179.35400390625,406.53125,0,1,faces,male,1,1,faces,P,female,VS,F,171,E01,714.068359375,1
0,1.0,0,28009,1.193359375,0.1640625,3.0,1.0,15,75,6,1390.103515625,329.290496826172,0,1,faces,male,1,1,faces,P,female,VS,F,171,E01,714.068359375,1
0,1.0,0,28010,1.4453125,0.2578125,4.0,1.0,5,12,7,665.497009277344,329.170867919922,0,1,faces,female,1,1,faces,P,female,VS,F,171,E01,714.068359375,1
1,1.0,0,28011,1.74609375,0.150390625,5.0,0.0,7,22,8,745.978210449219,398.863403320312,0,1,faces,male,1,1,faces,P,female,VS,F,171,E01,714.068359375,1
0,1.0,1,28012,1.93359375,0.234375,6.0,0.0,1,3,9,547.236328125,342.453674316406,0,1,faces,female,1,1,faces,P,female,VS,F,171,E01,714.068359375,1
0,1.0,0,28015,2.673828125,0.185546875,8.0,0.0,11,51,12,1050.44958496094,688.195861816406,0,1,faces,female,1,1,faces,P,female,VS,F,171,E01,714.068359375,1
0,1.0,0,28017,3.119140625,0.1484375,10.0,0.0,6,17,14,618.914855957031,795.822814941406,0,1,faces,female,1,1,faces,P,female,VS,F,171,E01,714.068359375,1
0,1.0,0,28062,0.66796875,0.201171875,2.0,1.0,8,39,4,936.436218261719,300.084228515625,0,1,faces,female,1,1,faces,P,female,VS,F,173,E01,722.466796875,1
0,1.0,0,28064,1.265625,0.189453125,3.0,1.0,4,12,6,639.3564453125,329.394897460938,0,1,faces,female,1,1,faces,P,female,VS,F,173,E01,722.466796875,1
0,1.0,1,28066,1.765625,0.173828125,4.0,1.0,1,7,8,607.033142089844,729.627197265625,0,1,faces,female,1,1,faces,P,female,VS,F,173,E01,722.466796875,1
1,1.0,0,28068,2.283203125,0.15625,5.0,0.0,13,61,10,1133.29248046875,690.638000488281,0,1,faces,male,1,1,faces,P,female,VS,F,173,E01,722.466796875,1
0,1.0,0,28070,2.6953125,0.15234375,6.0,0.0,15,80,12,1386.58850097656,810.606079101562,0,1,faces,male,1,1,faces,P,female,VS,F,173,E01,722.466796875,1
0,1.0,0,28073,3.337890625,0.171875,8.0,0.0,14,72,15,1264.21984863281,920.883972167969,0,1,faces,female,1,1,faces,P,female,VS,F,173,E01,722.466796875,1
0,1.0,0,28074,3.578125,0.19140625,9.0,0.0,10,53,16,1068.90869140625,808.307861328125,0,1,faces,male,1,1,faces,P,female,VS,F,173,E01,722.466796875,1
0,0.0,0,28096,1.12109375,0.119140625,2.0,1.0,12,56,5,1110.94763183594,256.404937744141,0,1,objects,big,0,1,faces,A,female,VS,I,174,E01,726.666015625,0
0,0.0,1,28097,1.349609375,0.208984375,3.0,1.0,1,1,6,572.199523925781,185.741760253906,0,1,objects,big,0,1,faces,A,female,VS,I,174,E01,726.666015625,0
0,0.0,0,28101,3.0,0.234375,4.0,1.0,13,70,10,1290.6015625,737.303955078125,0,1,faces,female,0,1,faces,A,female,VS,I,174,E01,726.666015625,0
0,0.0,0,28102,3.296875,0.203125,5.0,0.0,10,53,11,1070.86669921875,797.606811523438,0,1,faces,female,0,1,faces,A,female,VS,I,174,E01,726.666015625,0
0,0.0,0,28103,3.541015625,0.126953125,6.0,0.0,11,54,12,1059.4462890625,904.135986328125,0,1,faces,female,0,1,faces,A,female,VS,I,174,E01,726.666015625,0
1,0.0,0,28121,0.986328125,0.240234375,2.0,1.0,10,48,4,1054.70373535156,344.189270019531,0,1,objects,small,0,1,objects,A,big,VS,O,175,E01,730.865234375,0
0,0.0,0,28123,1.53125,0.126953125,3.0,1.0,15,79,6,1321.58068847656,708.660400390625,0,1,objects,big,0,1,objects,A,big,VS,O,175,E01,730.865234375,0
0,0.0,0,28124,1.734375,0.2265625,4.0,1.0,9,36,7,867.816833496094,900.906799316406,0,1,faces,male,0,1,objects,A,big,VS,O,175,E01,730.865234375,0
0,0.0,0,28125,2.0234375,0.1953125,5.0,0.0,4,18,8,621.245239257812,937.381469726562,0,1,faces,female,0,1,objects,A,big,VS,O,175,E01,730.865234375,0
0,0.0,0,28126,2.2890625,0.26171875,6.0,0.0,11,52,9,1017.828125,731.957214355469,0,1,faces,male,0,1,objects,A,big,VS,O,175,E01,730.865234375,0
0,0.0,0,28127,2.607421875,0.140625,7.0,0.0,7,34,10,866.78955078125,721.340209960938,0,1,faces,female,0,1,objects,A,big,VS,O,175,E01,730.865234375,0
0,0.0,0,28128,2.814453125,0.15625,8.0,0.0,1,6,11,570.785766601562,616.58642578125,0,1,faces,female,0,1,objects,A,big,VS,O,175,E01,730.865234375,0
0,0.0,1,28129,3.041015625,0.111328125,9.0,0.0,2,9,12,536.185974121094,965.940673828125,0,1,faces,male,0,1,objects,A,big,VS,O,175,E01,730.865234375,0
0,0.0,0,28131,3.361328125,0.244140625,10.0,0.0,14,76,14,1349.58093261719,430.697814941406,0,1,faces,male,0,1,objects,A,big,VS,O,175,E01,730.865234375,0
0,0.0,0,28172,1.099609375,0.146484375,2.0,1.0,10,56,2,1167.74499511719,261.229675292969,0,1,faces,male,0,1,faces,A,male,VS,I,177,E01,739.263671875,0
1,0.0,0,28173,1.314453125,0.18359375,3.0,1.0,11,58,3,1190.11767578125,433.017456054688,0,1,faces,male,0,1,faces,A,male,VS,I,177,E01,739.263671875,0
0,0.0,0,28174,1.556640625,0.103515625,4.0,1.0,12,59,4,1160.67358398438,504.838836669922,0,1,faces,female,0,1,faces,A,male,VS,I,177,E01,739.263671875,0
0,0.0,1,28177,2.087890625,0.16796875,6.0,0.0,3,14,7,693.520812988281,523.312927246094,0,1,faces,female,0,1,faces,A,male,VS,I,177,E01,739.263671875,0
0,0.0,0,28181,2.833984375,0.138671875,7.0,0.0,5,27,11,742.969360351562,936.619812011719,0,1,objects,small,0,1,faces,A,male,VS,I,177,E01,739.263671875,0
0,0.0,0,28182,3.068359375,0.17578125,8.0,0.0,13,71,12,1257.21899414062,867.457885742188,0,1,objects,small,0,1,faces,A,male,VS,I,177,E01,739.263671875,0
0,0.0,0,28183,3.28125,0.189453125,9.0,0.0,14,72,13,1273.54467773438,925.167541503906,0,1,faces,female,0,1,faces,A,male,VS,I,177,E01,739.263671875,0
0,0.0,1,28184,3.521484375,0.16015625,10.0,0.0,8,44,14,931.067810058594,846.181579589844,0,1,faces,female,0,1,faces,A,male,VS,I,177,E01,739.263671875,0
0,1.0,0,28199,0.35546875,0.1640625,2.0,1.0,9,47,2,1030.10522460938,231.705703735352,0,1,faces,male,1,1,objects,P,small,VS,O,178,E01,743.462890625,1
0,1.0,1,28200,0.568359375,0.1953125,3.0,1.0,13,56,3,1144.14416503906,204.670562744141,0,1,faces,female,1,1,objects,P,small,VS,O,178,E01,743.462890625,1
0,1.0,0,28202,0.98046875,0.189453125,4.0,1.0,10,48,5,1018.43347167969,334.805236816406,0,1,faces,female,1,1,objects,P,small,VS,O,178,E01,743.462890625,1
0,1.0,0,28204,1.427734375,0.12109375,5.0,0.0,5,33,7,838.583129882812,631.052185058594,0,1,faces,female,1,1,objects,P,small,VS,O,178,E01,743.462890625,1
0,1.0,0,28205,1.611328125,0.12890625,6.0,0.0,11,52,8,1010.17034912109,723.722290039062,0,1,objects,big,1,1,objects,P,small,VS,O,178,E01,743.462890625,1
0,1.0,0,28206,1.8046875,0.17578125,7.0,0.0,6,35,9,820.063903808594,821.923706054688,0,1,objects,small,1,1,objects,P,small,VS,O,178,E01,743.462890625,1
0,1.0,0,28207,2.021484375,0.373046875,8.0,0.0,7,36,10,850.147338867188,925.976013183594,0,1,objects,big,1,1,objects,P,small,VS,O,178,E01,743.462890625,1
0,0.0,0,28211,3.2890625,0.166015625,10.0,0.0,2,17,14,661.941955566406,809.433654785156,0,1,faces,male,1,1,objects,P,small,VS,O,178,E01,743.462890625,0
0,1.0,0,28258,0.646484375,0.119140625,2.0,1.0,10,47,3,1023.48382568359,244.006607055664,0,1,faces,female,1,1,faces,P,female,VS,I,180,E01,751.861328125,1
0,1.0,0,28260,1.0078125,0.166015625,3.0,1.0,2,3,5,581.009521484375,313.487060546875,0,1,objects,big,1,1,faces,P,female,VS,I,180,E01,751.861328125,1
0,1.0,0,28261,1.271484375,0.1484375,4.0,1.0,1,1,6,550.678283691406,165.758575439453,0,1,objects,small,1,1,faces,P,female,VS,I,180,E01,751.861328125,1
0,1.0,1,28263,1.6640625,0.1640625,5.0,0.0,3,5,8,539.5732421875,524.222473144531,0,1,faces,female,1,1,faces,P,female,VS,I,180,E01,751.861328125,1
0,1.0,1,28290,0.974609375,0.1796875,2.0,1.0,2,11,5,681.949157714844,209.730346679688,0,1,faces,male,1,1,faces,P,female,VS,I,181,E01,756.060546875,1
0,1.0,0,28292,1.373046875,0.2265625,3.0,1.0,7,23,7,736.933044433594,528.447143554688,0,1,faces,female,1,1,faces,P,female,VS,I,181,E01,756.060546875,1
0,1.0,0,28293,1.67578125,0.1484375,4.0,1.0,4,17,8,682.584045410156,821.918701171875,0,1,faces,male,1,1,faces,P,female,VS,I,181,E01,756.060546875,1
0,0.0,0,28315,0.990234375,0.109375,2.0,1.0,1,1,4,559.820678710938,146.421966552734,0,1,faces,male,0,1,faces,A,male,VS,F,182,E01,760.259765625,0
0,0.0,1,28316,1.15234375,0.181640625,3.0,1.0,4,11,5,629.871337890625,222.061904907227,0,1,faces,male,0,1,faces,A,male,VS,F,182,E01,760.259765625,0
1,0.0,0,28319,1.8828125,0.171875,4.0,1.0,7,33,8,852.80859375,672.086181640625,0,1,faces,male,0,1,faces,A,male,VS,F,182,E01,760.259765625,0
0,0.0,0,28320,2.08203125,0.197265625,5.0,0.0,8,34,9,863.511047363281,739.333557128906,0,1,faces,male,0,1,faces,A,male,VS,F,182,E01,760.259765625,0
0,0.0,0,28321,2.32421875,0.125,6.0,0.0,10,44,10,928.085998535156,830.092407226562,0,1,faces,female,0,1,faces,A,male,VS,F,182,E01,760.259765625,0
0,0.0,0,28322,2.48828125,0.21875,7.0,0.0,11,45,11,967.236450195312,908.583435058594,0,1,objects,small,0,1,faces,A,male,VS,F,182,E01,760.259765625,0
0,0.0,0,28324,2.95703125,0.328125,8.0,0.0,13,59,13,1168.9560546875,535.488098144531,0,1,faces,female,0,1,faces,A,male,VS,F,182,E01,760.259765625,0
0,0.0,1,28403,1.33203125,0.22265625,2.0,1.0,6,21,4,724.577392578125,311.845428466797,0,1,faces,male,0,1,objects,A,small,VS,O,185,E01,772.857421875,0
0,0.0,0,28405,1.91015625,0.267578125,3.0,1.0,10,40,6,952.167907714844,444.609008789062,0,1,faces,female,0,1,objects,A,small,VS,O,185,E01,772.857421875,0
0,0.0,1,28406,2.236328125,0.19140625,4.0,1.0,8,23,7,792.626098632812,517.0517578125,0,1,faces,male,0,1,objects,A,small,VS,O,185,E01,772.857421875,0
0,0.0,0,28409,3.00390625,0.140625,5.0,0.0,2,8,10,582.883483886719,838.228881835938,0,1,objects,big,0,1,objects,A,small,VS,O,185,E01,772.857421875,0
0,0.0,0,28411,3.515625,0.12109375,6.0,0.0,14,62,12,1158.35595703125,821.577270507812,0,1,faces,male,0,1,objects,A,small,VS,O,185,E01,772.857421875,0
0,0.0,0,28413,3.94921875,0.138671875,7.0,0.0,15,74,14,1356.01000976562,284.461761474609,0,1,objects,small,0,1,objects,A,small,VS,O,185,E01,772.857421875,0
0,1.0,0,28425,0.716796875,0.216796875,2.0,1.0,9,47,3,1031.37170410156,247.351409912109,0,1,faces,male,1,1,faces,P,female,VS,F,186,E01,777.056640625,1
0,1.0,0,28426,1.00390625,0.224609375,3.0,1.0,15,74,4,1372.66320800781,274.915069580078,0,1,faces,female,1,1,faces,P,female,VS,F,186,E01,777.056640625,1
0,1.0,0,28502,0.921875,0.111328125,2.0,1.0,13,64,4,1232.05590820312,177.837448120117,0,1,faces,female,1,1,objects,P,big,VS,O,189,E01,789.654296875,1
0,1.0,0,28504,1.435546875,0.15234375,3.0,1.0,6,33,6,908.925903320312,672.710693359375,0,1,objects,small,1,1,objects,P,big,VS,O,189,E01,789.654296875,1
0,1.0,0,28505,1.662109375,0.201171875,4.0,1.0,10,53,7,1050.01611328125,837.261840820312,0,1,objects,small,1,1,objects,P,big,VS,O,189,E01,789.654296875,1
0,0.0,0,28532,0.814453125,0.140625,2.0,1.0,3,10,3,657.411865234375,144.292114257812,0,1,faces,male,1,1,faces,P,male,VS,F,190,E01,793.853515625,0
0,0.0,0,28533,1.015625,0.25,3.0,1.0,8,29,4,888.222534179688,257.439544677734,0,1,faces,female,1,1,faces,P,male,VS,F,190,E01,793.853515625,0
0,0.0,1,28534,1.322265625,0.31640625,4.0,1.0,10,39,5,996.951965332031,340.433868408203,0,1,faces,male,1,1,faces,P,male,VS,F,190,E01,793.853515625,0
0,0.0,0,28537,2.31640625,0.302734375,5.0,0.0,1,4,8,569.240478515625,483.913421630859,0,1,faces,male,1,1,faces,P,male,VS,F,190,E01,793.853515625,0
0,0.0,0,28539,2.890625,0.25,6.0,0.0,6,25,10,757.389526367188,736.088195800781,0,1,objects,big,1,1,faces,P,male,VS,F,190,E01,793.853515625,0
0,0.0,0,28540,3.212890625,0.15625,7.0,0.0,13,61,11,1151.28833007812,743.828979492188,0,1,faces,male,1,1,faces,P,male,VS,F,190,E01,793.853515625,0
0,0.0,0,28541,3.4375,0.1015625,8.0,0.0,14,72,12,1272.04406738281,911.3037109375,0,1,faces,female,1,1,faces,P,male,VS,F,190,E01,793.853515625,0
0,1.0,0,28558,0.8046875,0.251953125,2.0,1.0,12,56,4,1129.60119628906,236.872131347656,0,1,faces,male,1,1,faces,P,male,VS,I,191,E01,798.052734375,1
0,1.0,0,28560,1.2890625,0.20703125,3.0,1.0,14,65,6,1274.74938964844,271.731384277344,0,1,faces,female,1,1,faces,P,male,VS,I,191,E01,798.052734375,1
0,1.0,0,28610,1.19921875,0.216796875,2.0,1.0,6,41,6,936.750732421875,541.994873046875,0,1,faces,male,1,1,faces,P,female,VS,F,193,E01,806.451171875,1
0,1.0,0,28611,1.478515625,0.150390625,3.0,1.0,7,43,7,990.120361328125,720.790344238281,0,1,faces,male,1,1,faces,P,female,VS,F,193,E01,806.451171875,1
0,1.0,0,28612,1.666015625,0.126953125,4.0,1.0,10,52,8,1050.68432617188,724.771484375,0,1,faces,female,1,1,faces,P,female,VS,F,193,E01,806.451171875,1
0,1.0,0,28613,1.83984375,0.193359375,5.0,0.0,3,33,9,848.057373046875,626.3828125,0,1,faces,female,1,1,faces,P,female,VS,F,193,E01,806.451171875,1
0,0.0,0,28632,0.619140625,0.1875,2.0,1.0,10,57,3,1181.66101074219,374.359527587891,0,1,faces,female,0,1,objects,A,big,VS,O,194,E01,810.650390625,0
0,0.0,0,28633,0.8515625,0.224609375,3.0,1.0,15,75,4,1317.45324707031,365.068603515625,0,1,objects,small,0,1,objects,A,big,VS,O,194,E01,810.650390625,0
0,0.0,0,28635,1.3359375,0.1484375,4.0,1.0,7,41,6,953.745910644531,523.220397949219,0,1,faces,female,0,1,objects,A,big,VS,O,194,E01,810.650390625,0
0,0.0,0,28636,1.552734375,0.283203125,5.0,0.0,2,24,7,722.4609375,635.049560546875,0,1,faces,male,0,1,objects,A,big,VS,O,194,E01,810.650390625,0
1,0.0,0,28637,1.908203125,0.193359375,6.0,0.0,9,53,8,1015.79656982422,838.703308105469,0,1,faces,female,0,1,objects,A,big,VS,O,194,E01,810.650390625,0
0,0.0,0,28638,2.162109375,0.185546875,7.0,0.0,14,72,9,1213.46838378906,906.023254394531,0,1,faces,female,0,1,objects,A,big,VS,O,194,E01,810.650390625,0
0,0.0,0,28641,2.912109375,0.380859375,9.0,0.0,8,47,12,1043.74694824219,268.541137695312,0,1,objects,big,0,1,objects,A,big,VS,O,194,E01,810.650390625,0
0,0.0,0,28743,1.5546875,0.166015625,2.0,1.0,4,22,6,722.960144042969,410.286865234375,0,1,objects,small,0,1,objects,A,small,VS,O,198,E01,827.447265625,0
0,0.0,0,28744,1.791015625,0.361328125,3.0,1.0,1,3,7,542.331176757812,357.515045166016,0,1,faces,male,0,1,objects,A,small,VS,O,198,E01,827.447265625,0
0,0.0,0,28746,2.546875,0.271484375,4.0,1.0,3,9,9,520.591857910156,929.283569335938,0,1,faces,female,0,1,objects,A,small,VS,O,198,E01,827.447265625,0
0,0.0,0,28747,2.916015625,0.25,5.0,0.0,6,34,10,815.361633300781,749.081848144531,0,1,faces,female,0,1,objects,A,small,VS,O,198,E01,827.447265625,0
0,0.0,0,28748,3.216796875,0.427734375,6.0,0.0,8,44,11,955.8505859375,793.814147949219,0,1,objects,big,0,1,objects,A,small,VS,O,198,E01,827.447265625,0
0,0.0,0,28749,3.708984375,0.10546875,7.0,0.0,9,52,12,1088.17126464844,733.40576171875,0,1,faces,female,0,1,objects,A,small,VS,O,198,E01,827.447265625,0
0,1.0,0,28762,0.8046875,0.22265625,2.0,1.0,6,21,3,756.752380371094,357.982818603516,0,1,faces,male,1,1,faces,P,male,VS,I,199,E01,831.646484375,1
0,1.0,0,28763,1.072265625,0.345703125,3.0,1.0,9,31,4,829.095275878906,430.419830322266,0,1,faces,female,1,1,faces,P,male,VS,I,199,E01,831.646484375,1
0,1.0,0,28765,1.69140625,0.23046875,4.0,1.0,8,25,6,787.722229003906,755.7294921875,0,1,faces,female,1,1,faces,P,male,VS,I,199,E01,831.646484375,1
0,1.0,0,28766,1.986328125,0.29296875,5.0,0.0,10,36,7,841.811340332031,921.106750488281,0,1,faces,female,1,1,faces,P,male,VS,I,199,E01,831.646484375,1
0,1.0,0,28767,2.33203125,0.1484375,6.0,0.0,4,17,8,639.462280273438,856.79638671875,0,1,faces,female,1,1,faces,P,male,VS,I,199,E01,831.646484375,1
0,1.0,0,28830,0.60546875,0.185546875,2.0,1.0,8,38,2,977.811950683594,284.907867431641,0,1,faces,female,1,1,faces,P,female,VS,I,202,E01,844.244140625,1
0,0.0,1,28836,2.76953125,0.16015625,5.0,0.0,4,14,8,685.789001464844,559.162292480469,0,1,faces,male,1,1,faces,P,female,VS,I,202,E01,844.244140625,0
0,0.0,0,28838,3.13671875,0.283203125,6.0,0.0,7,25,10,746.281616210938,734.48486328125,0,1,faces,female,1,1,faces,P,female,VS,I,202,E01,844.244140625,0
0,0.0,0,28842,3.974609375,0.1171875,7.0,0.0,14,67,14,1264.98852539062,439.224304199219,0,1,faces,male,1,1,faces,P,female,VS,I,202,E01,844.244140625,0
0,1.0,0,28863,0.77734375,0.19921875,2.0,1.0,11,58,4,1174.701171875,454.959411621094,0,1,faces,female,1,1,faces,P,female,VS,F,203,E01,848.443359375,1
0,1.0,0,28864,1.021484375,0.189453125,3.0,1.0,12,68,5,1264.16247558594,548.990966796875,0,1,faces,female,1,1,faces,P,female,VS,F,203,E01,848.443359375,1
0,1.0,0,28866,1.494140625,0.138671875,5.0,0.0,14,70,7,1252.68798828125,744.369079589844,0,1,objects,small,1,1,faces,P,female,VS,F,203,E01,848.443359375,1
0,0.0,0,28942,2.556640625,0.224609375,2.0,1.0,1,1,5,601.601989746094,158.079650878906,0,1,faces,female,1,1,objects,P,big,VS,O,206,E01,861.041015625,0
0,0.0,1,28969,1.951171875,0.166015625,2.0,1.0,1,1,6,539.446716308594,172.888565063477,0,1,faces,male,1,1,faces,P,female,VS,F,207,E01,865.240234375,0
0,0.0,0,28972,2.60546875,0.30078125,3.0,1.0,13,78,9,1316.40441894531,641.713684082031,0,1,faces,female,1,1,faces,P,female,VS,F,207,E01,865.240234375,0
0,0.0,0,28974,3.125,0.294921875,5.0,0.0,14,80,11,1356.79443359375,885.206848144531,0,1,faces,female,1,1,faces,P,female,VS,F,207,E01,865.240234375,0
0,0.0,0,28975,3.478515625,0.109375,6.0,0.0,10,62,12,1169.99426269531,853.992370605469,0,1,faces,male,1,1,faces,P,female,VS,F,207,E01,865.240234375,0
0,0.0,0,28977,3.798828125,0.10546875,7.0,0.0,3,8,14,554.864440917969,828.529602050781,0,1,objects,small,1,1,faces,P,female,VS,F,207,E01,865.240234375,0
0,0.0,0,28994,3.134765625,0.25390625,2.0,1.0,5,23,8,742.080017089844,509.176330566406,0,1,faces,female,0,1,faces,A,female,VS,I,208,E01,869.439453125,0
0,0.0,0,28995,3.69921875,0.166015625,3.0,1.0,12,61,9,1136.72424316406,762.666381835938,0,1,faces,female,0,1,faces,A,female,VS,I,208,E01,869.439453125,0
0,0.0,0,28996,3.931640625,0.19921875,4.0,1.0,9,36,10,880.276123046875,902.494506835938,0,1,objects,small,0,1,faces,A,female,VS,I,208,E01,869.439453125,0
0,0.0,0,29047,1.642578125,0.228515625,2.0,1.0,12,74,8,1327.76989746094,285.899932861328,0,1,faces,male,0,1,faces,A,male,VS,F,210,E01,877.837890625,0
0,0.0,0,29048,1.93359375,0.154296875,3.0,1.0,9,66,9,1245.16857910156,320.809661865234,0,1,objects,big,0,1,faces,A,male,VS,F,210,E01,877.837890625,0
0,0.0,0,29050,2.3984375,0.1015625,4.0,1.0,6,40,11,979.75,392.665466308594,0,1,faces,female,0,1,faces,A,male,VS,F,210,E01,877.837890625,0
0,0.0,0,29054,3.40234375,0.310546875,5.0,0.0,15,80,15,1396.32299804688,812.922607421875,0,1,faces,female,0,1,faces,A,male,VS,F,210,E01,877.837890625,0
0,0.0,0,29091,1.048828125,0.1328125,2.0,1.0,11,56,2,1118.75646972656,234.360076904297,0,1,objects,small,0,1,faces,A,male,VS,I,212,E01,886.236328125,0
0,0.0,0,29092,1.2265625,0.203125,3.0,1.0,7,47,3,1066.08581542969,258.163024902344,0,1,objects,big,0,1,faces,A,male,VS,I,212,E01,886.236328125,0
0,0.0,1,29096,2.12890625,0.15625,4.0,1.0,8,49,7,1073.87963867188,430.616943359375,0,1,faces,male,0,1,faces,A,male,VS,I,212,E01,886.236328125,0
0,0.0,1,29099,3.046875,0.171875,5.0,0.0,9,50,10,1041.09802246094,565.735595703125,0,1,faces,female,0,1,faces,A,male,VS,I,212,E01,886.236328125,0
1,0.0,1,20482,0.580078125,0.173828125,2.0,1.0,2,2,3,597.696166992188,209.857879638672,0,1,objects,small,0,1,objects,A,big,VS,O,1,E03,0.201171875,0
0,0.0,0,20485,1.19140625,0.248046875,3.0,1.0,8,24,6,763.282531738281,615.494567871094,0,1,objects,big,0,1,objects,A,big,VS,O,1,E03,0.201171875,0
0,0.0,0,20486,1.505859375,0.248046875,4.0,1.0,7,18,7,657.356384277344,930.869384765625,0,1,objects,big,0,1,objects,A,big,VS,O,1,E03,0.201171875,0
0,0.0,0,20487,1.82421875,0.212890625,5.0,0.0,11,54,8,1045.4482421875,914.403747558594,0,1,objects,small,0,1,objects,A,big,VS,O,1,E03,0.201171875,0
0,0.0,0,20490,2.546875,0.166015625,6.0,0.0,15,75,11,1365.6826171875,330.055511474609,0,1,faces,female,0,1,objects,A,big,VS,O,1,E03,0.201171875,0
1,0.0,0,20491,2.806640625,0.12109375,7.0,0.0,3,6,12,608.618591308594,668.489440917969,0,1,faces,male,0,1,objects,A,big,VS,O,1,E03,0.201171875,0
0,0.0,0,20492,2.951171875,0.158203125,8.0,0.0,4,7,13,554.487365722656,706.192932128906,0,1,faces,male,0,1,objects,A,big,VS,O,1,E03,0.201171875,0
0,0.0,0,20495,3.83984375,0.263671875,11.0,0.0,5,12,16,657.308166503906,316.273254394531,0,1,faces,female,0,1,objects,A,big,VS,O,1,E03,0.201171875,0
0,0.0,1,20551,0.712890625,0.20703125,2.0,1.0,4,22,6,767.610107421875,424.478149414062,0,1,faces,female,0,1,faces,A,female,VS,F,3,E03,8.599609375,0
1,0.0,0,20552,0.986328125,0.197265625,3.0,1.0,5,25,7,776.727478027344,731.416625976562,0,1,faces,female,0,1,faces,A,female,VS,F,3,E03,8.599609375,0
1,0.0,0,20553,1.23046875,0.109375,4.0,1.0,7,34,8,860.804992675781,731.173034667969,0,1,faces,male,0,1,faces,A,female,VS,F,3,E03,8.599609375,0
0,0.0,1,20554,1.42578125,0.15234375,5.0,0.0,15,81,9,1388.80285644531,927.145324707031,0,1,faces,female,0,1,faces,A,female,VS,F,3,E03,8.599609375,0
0,0.0,1,20556,1.796875,0.134765625,6.0,0.0,14,75,11,1354.51708984375,310.118621826172,0,1,objects,small,0,1,faces,A,female,VS,F,3,E03,8.599609375,0
1,0.0,0,20558,2.076171875,0.1953125,7.0,0.0,13,74,13,1372.63598632812,211.696487426758,0,1,faces,female,0,1,faces,A,female,VS,F,3,E03,8.599609375,0
