refix,pretarget,multifix,urevent,tonset,dur_added,rank,first_rank,stposrel,stposabs,n,x,y,istarget,isdistractor,distractor_cat,ditractor_atr,trial_targetseen,trial_correct,trial_cat,trial_resp,trial_atr,trial_type,trial_cattype,trial_number,trial_subject,trial_bgn_latency,hard_easy
0,1.0,1,23232,1.240234375,0.119140625,3.0,1.0,13,66,6,1257.83056640625,296.270446777344,0,1,objects,small,1,1,objects,P,big,VS,O,2,E01,4.400390625,1
0,1.0,0,23278,0.9375,0.125,3.0,1.0,10,56,4,1159.45556640625,191.059768676758,0,1,objects,small,1,1,objects,P,small,VS,O,4,E01,12.798828125,1
0,1.0,1,23279,1.109375,0.162109375,4.0,1.0,8,47,5,1093.4130859375,274.922119140625,0,1,objects,big,1,1,objects,P,small,VS,O,4,E01,12.798828125,1
0,1.0,0,23583,0.53125,0.130859375,2.0,1.0,5,19,2,727.278015136719,161.494171142578,0,1,objects,big,1,1,faces,P,female,VS,F,16,E01,63.189453125,0
0,1.0,0,23634,1.7578125,0.1484375,5.0,0.0,6,24,8,803.429565429688,608.787231445312,0,1,objects,big,1,1,faces,P,female,VS,F,18,E01,71.587890625,0
0,1.0,0,23709,1.453125,0.134765625,5.0,0.0,9,40,6,950.002746582031,426.230041503906,0,1,objects,small,1,1,objects,P,small,VS,O,21,E01,84.185546875,1
0,1.0,0,23818,2.95703125,0.123046875,9.0,0.0,7,52,15,1057.81115722656,770.4609375,0,1,objects,big,1,1,faces,P,female,VS,F,25,E01,100.982421875,0
0,1.0,0,23937,1.2421875,0.125,5.0,0.0,14,75,6,1392.00866699219,378.409729003906,0,1,objects,big,1,1,faces,P,male,VS,I,29,E01,117.779296875,0
0,1.0,0,23939,1.6171875,0.19921875,7.0,0.0,3,22,8,791.37841796875,451.220367431641,0,1,objects,small,1,1,faces,P,male,VS,I,29,E01,117.779296875,0
0,1.0,0,23940,1.861328125,0.138671875,8.0,0.0,4,32,9,879.199462890625,544.513061523438,0,1,objects,small,1,1,faces,P,male,VS,I,29,E01,117.779296875,0
0,1.0,0,23944,2.9453125,0.13671875,12.0,0.0,12,70,13,1261.6552734375,735.941467285156,0,1,objects,big,1,1,faces,P,male,VS,I,29,E01,117.779296875,0
0,1.0,0,23945,3.134765625,0.140625,13.0,0.0,11,68,14,1262.39538574219,555.264465332031,0,1,objects,big,1,1,faces,P,male,VS,I,29,E01,117.779296875,0
0,1.0,0,24012,0.658203125,0.205078125,2.0,1.0,11,65,4,1310.43896484375,281.281890869141,0,1,objects,small,1,1,objects,P,small,VS,O,32,E01,130.376953125,1
0,1.0,0,24303,1.11328125,0.162109375,4.0,1.0,4,22,5,747.702209472656,447.280364990234,0,1,objects,small,1,1,objects,P,big,VS,O,44,E01,180.767578125,1
0,1.0,0,24431,2.205078125,0.1875,4.0,1.0,8,34,7,861.879821777344,733.322326660156,0,1,objects,big,1,1,faces,P,male,VS,F,49,E01,201.763671875,0
0,1.0,0,24577,0.5390625,0.36328125,2.0,1.0,13,56,2,1177.07690429688,244.857757568359,0,1,objects,small,1,1,objects,P,small,VS,O,55,E01,226.958984375,1
0,1.0,0,24600,1.353515625,0.224609375,3.0,1.0,7,42,4,999.66650390625,628.956787109375,0,1,objects,small,1,1,objects,P,big,VS,O,56,E01,231.158203125,1
0,1.0,0,24601,1.625,0.171875,4.0,1.0,11,60,5,1178.12170410156,627.736511230469,0,1,objects,big,1,1,objects,P,big,VS,O,56,E01,231.158203125,1
0,1.0,0,24602,1.873046875,0.267578125,5.0,0.0,2,15,6,624.904479980469,657.756713867188,0,1,objects,small,1,1,objects,P,big,VS,O,56,E01,231.158203125,1
0,1.0,0,24603,2.23046875,0.22265625,6.0,0.0,8,52,7,1099.73718261719,760.257995605469,0,1,objects,small,1,1,objects,P,big,VS,O,56,E01,231.158203125,1
0,1.0,0,24887,1.38671875,0.23046875,3.0,1.0,3,23,5,737.35498046875,516.80224609375,0,1,objects,small,1,1,faces,P,male,VS,F,67,E01,277.349609375,0
0,1.0,0,24888,1.673828125,0.1328125,4.0,1.0,7,50,6,1032.78125,525.287109375,0,1,objects,big,1,1,faces,P,male,VS,F,67,E01,277.349609375,0
0,1.0,0,25324,1.462890625,0.24609375,5.0,0.0,4,12,6,644.184814453125,345.332092285156,0,1,objects,small,1,1,faces,P,female,VS,F,76,E01,315.142578125,0
0,1.0,0,26032,0.8125,0.134765625,3.0,1.0,1,1,3,578.214111328125,154.82666015625,0,1,objects,big,1,1,faces,P,female,VS,I,102,E01,424.322265625,0
0,1.0,0,26034,1.318359375,0.275390625,5.0,0.0,5,21,5,803.272827148438,360.571228027344,0,1,objects,big,1,1,faces,P,female,VS,I,102,E01,424.322265625,0
0,1.0,0,26037,2.078125,0.18359375,6.0,0.0,13,61,8,1163.60632324219,741.0703125,0,1,objects,small,1,1,faces,P,female,VS,I,102,E01,424.322265625,0
0,1.0,0,26051,0.76171875,0.109375,2.0,1.0,13,75,3,1386.53735351562,306.834014892578,0,1,objects,big,1,1,objects,P,big,VS,O,103,E01,428.521484375,1
0,1.0,0,26052,0.900390625,0.216796875,3.0,1.0,12,74,4,1374.36694335938,278.625854492188,0,1,objects,small,1,1,objects,P,big,VS,O,103,E01,428.521484375,1
0,1.0,0,26158,0.478515625,0.26171875,2.0,1.0,7,41,2,972.236633300781,492.193206787109,0,1,objects,small,1,1,objects,P,big,VS,O,107,E01,445.318359375,1
1,1.0,0,26398,0.482421875,0.203125,2.0,1.0,2,2,2,566.635192871094,193.745788574219,0,1,objects,small,1,1,faces,P,female,VS,I,116,E01,483.111328125,0
0,1.0,0,26428,0.654296875,0.212890625,2.0,1.0,1,1,4,564.562438964844,138.441635131836,0,1,objects,big,1,1,objects,P,small,VS,O,117,E01,487.310546875,1
0,1.0,0,26450,1.60546875,0.181640625,4.0,1.0,3,14,7,637.7646484375,502.627899169922,0,1,objects,small,1,1,faces,P,male,VS,I,118,E01,491.509765625,0
0,1.0,0,26471,1.431640625,0.345703125,3.0,1.0,14,77,5,1405.8720703125,534.388244628906,0,1,objects,small,1,1,objects,P,small,VS,O,119,E01,495.708984375,1
0,1.0,0,26528,2.248046875,0.236328125,5.0,0.0,10,53,11,1050.80407714844,840.283386230469,0,1,objects,big,1,1,faces,P,male,VS,I,121,E01,504.107421875,0
0,1.0,1,26532,3.087890625,0.15625,8.0,0.0,12,63,15,1127.728515625,973.958129882812,0,1,objects,big,1,1,faces,P,male,VS,I,121,E01,504.107421875,0
0,1.0,0,26724,2.353515625,0.162109375,6.0,0.0,1,3,12,571.526794433594,378.707763671875,0,1,objects,small,1,1,faces,P,female,VS,F,128,E01,533.501953125,0
0,1.0,0,26926,2.17578125,0.1640625,4.0,1.0,11,68,8,1280.84851074219,577.437438964844,0,1,objects,small,1,1,objects,P,small,VS,O,136,E01,567.095703125,1
0,1.0,0,27137,0.470703125,0.185546875,2.0,1.0,8,56,2,1162.59167480469,223.639694213867,0,1,objects,small,1,1,objects,P,small,VS,O,144,E01,600.689453125,1
0,1.0,0,27414,1.869140625,0.212890625,5.0,0.0,6,42,8,956.059326171875,635.0419921875,0,1,objects,small,1,1,faces,P,male,VS,F,148,E01,617.486328125,0
0,1.0,0,27430,1.111328125,0.224609375,3.0,1.0,9,42,4,933.024841308594,604.525634765625,0,1,objects,small,1,1,objects,P,small,VS,O,149,E01,621.685546875,1
0,1.0,0,27492,1.033203125,0.119140625,2.0,1.0,6,38,5,936.087829589844,204.736633300781,0,1,objects,big,1,1,faces,P,female,VS,I,151,E01,630.083984375,0
0,1.0,0,27742,0.556640625,0.146484375,2.0,1.0,1,4,3,559.467529296875,436.854705810547,0,1,objects,small,1,1,faces,P,female,VS,I,161,E01,672.076171875,0
0,1.0,0,27964,0.998046875,0.16796875,4.0,1.0,13,68,5,1273.81945800781,493.272155761719,0,1,objects,small,1,1,faces,P,female,VS,I,169,E01,705.669921875,0
0,1.0,1,27965,1.236328125,0.3203125,5.0,0.0,6,32,6,888.273254394531,547.81494140625,0,1,objects,small,1,1,faces,P,female,VS,I,169,E01,705.669921875,0
0,1.0,0,28205,1.611328125,0.12890625,6.0,0.0,11,52,8,1010.17034912109,723.722290039062,0,1,objects,big,1,1,objects,P,small,VS,O,178,E01,743.462890625,1
0,1.0,0,28206,1.8046875,0.17578125,7.0,0.0,6,35,9,820.063903808594,821.923706054688,0,1,objects,small,1,1,objects,P,small,VS,O,178,E01,743.462890625,1
0,1.0,0,28207,2.021484375,0.373046875,8.0,0.0,7,36,10,850.147338867188,925.976013183594,0,1,objects,big,1,1,objects,P,small,VS,O,178,E01,743.462890625,1
0,1.0,0,28260,1.0078125,0.166015625,3.0,1.0,2,3,5,581.009521484375,313.487060546875,0,1,objects,big,1,1,faces,P,female,VS,I,180,E01,751.861328125,0
0,1.0,0,28261,1.271484375,0.1484375,4.0,1.0,1,1,6,550.678283691406,165.758575439453,0,1,objects,small,1,1,faces,P,female,VS,I,180,E01,751.861328125,0
0,1.0,0,28504,1.435546875,0.15234375,3.0,1.0,6,33,6,908.925903320312,672.710693359375,0,1,objects,small,1,1,objects,P,big,VS,O,189,E01,789.654296875,1
0,1.0,0,28505,1.662109375,0.201171875,4.0,1.0,10,53,7,1050.01611328125,837.261840820312,0,1,objects,small,1,1,objects,P,big,VS,O,189,E01,789.654296875,1
0,1.0,0,28866,1.494140625,0.138671875,5.0,0.0,14,70,7,1252.68798828125,744.369079589844,0,1,objects,small,1,1,faces,P,female,VS,F,203,E01,848.443359375,0
0,1.0,1,20886,2.3046875,0.103515625,7.0,0.0,3,17,12,649.312561035156,882.624328613281,0,1,objects,big,1,1,faces,P,male,VS,I,14,E03,54.791015625,0
0,1.0,0,20983,0.37109375,0.1171875,2.0,1.0,9,48,2,1041.80651855469,378.630340576172,0,1,objects,small,1,1,faces,P,female,VS,I,18,E03,71.587890625,0
0,1.0,1,21083,0.43359375,0.119140625,2.0,1.0,5,24,2,799.49462890625,658.635864257812,0,1,objects,small,1,1,objects,P,big,VS,O,22,E03,88.384765625,1
0,1.0,1,21088,1.33984375,0.138671875,4.0,1.0,2,15,7,629.753234863281,660.459350585938,0,1,objects,small,1,1,objects,P,big,VS,O,22,E03,88.384765625,1
0,1.0,1,21150,0.521484375,0.2265625,2.0,1.0,6,20,4,750.244750976562,214.214996337891,0,1,objects,big,1,1,objects,P,small,VS,O,24,E03,96.783203125,1
1,1.0,0,21815,0.501953125,0.12890625,2.0,1.0,5,22,2,755.962890625,474.938140869141,0,1,objects,small,1,1,objects,P,big,VS,O,45,E03,184.966796875,1
0,1.0,0,22931,0.423828125,0.279296875,2.0,1.0,4,19,2,768.93212890625,166.605667114258,0,1,objects,big,1,1,objects,P,big,VS,O,73,E03,302.544921875,1
0,1.0,1,22932,0.7734375,0.146484375,3.0,1.0,6,31,3,871.867614746094,479.911254882812,0,1,objects,big,1,1,objects,P,big,VS,O,73,E03,302.544921875,1
0,1.0,1,23240,1.7109375,0.125,6.0,0.0,11,55,10,1126.50659179688,156.512329101562,0,1,objects,big,1,1,faces,P,female,VS,I,82,E03,340.337890625,0
0,1.0,0,23245,2.5625,0.18359375,8.0,0.0,4,18,15,652.0205078125,920.382080078125,0,1,objects,small,1,1,faces,P,female,VS,I,82,E03,340.337890625,0
0,1.0,0,23446,2.376953125,0.1484375,5.0,0.0,2,17,10,689.26416015625,819.176574707031,0,1,objects,small,1,1,faces,P,male,VS,F,88,E03,365.533203125,0
1,1.0,0,23478,2.080078125,0.126953125,5.0,0.0,14,62,11,1156.33239746094,860.065307617188,0,1,objects,big,1,1,objects,P,big,VS,O,89,E03,369.732421875,1
0,1.0,0,23652,1.578125,0.154296875,2.0,1.0,7,39,10,982.424560546875,376.728240966797,0,1,objects,small,1,1,faces,P,male,VS,F,94,E03,390.728515625,0
0,1.0,0,23655,2.1953125,0.16796875,4.0,1.0,6,33,13,838.799072265625,627.310424804688,0,1,objects,small,1,1,faces,P,male,VS,F,94,E03,390.728515625,0
0,1.0,0,24067,0.951171875,0.185546875,3.0,1.0,8,48,5,1091.40759277344,376.471466064453,0,1,objects,big,1,1,objects,P,small,VS,O,107,E03,445.318359375,1
0,1.0,0,24068,1.19921875,0.1640625,4.0,1.0,11,59,6,1192.16857910156,583.135070800781,0,1,objects,small,1,1,objects,P,small,VS,O,107,E03,445.318359375,1
0,1.0,0,24069,1.396484375,0.12109375,5.0,0.0,12,60,7,1169.70971679688,654.523376464844,0,1,objects,big,1,1,objects,P,small,VS,O,107,E03,445.318359375,1
0,1.0,0,24223,0.814453125,0.10546875,2.0,1.0,10,46,4,1052.67724609375,169.964233398438,0,1,objects,big,1,1,faces,P,female,VS,F,113,E03,470.513671875,0
0,1.0,0,24248,0.6171875,0.12890625,2.0,1.0,6,22,3,781.7412109375,444.195983886719,0,1,objects,big,1,1,objects,P,big,VS,O,114,E03,474.712890625,1
0,1.0,1,24277,1.677734375,0.123046875,6.0,0.0,7,33,8,905.696166992188,675.270568847656,0,1,objects,small,1,1,faces,P,female,VS,F,115,E03,478.912109375,0
0,1.0,0,24279,2.029296875,0.107421875,7.0,0.0,6,16,10,618.939758300781,733.016906738281,0,1,objects,small,1,1,faces,P,female,VS,F,115,E03,478.912109375,0
0,1.0,1,24425,0.638671875,0.10546875,2.0,1.0,1,13,3,672.013244628906,440.663330078125,0,1,objects,big,1,1,objects,P,small,VS,O,120,E03,499.908203125,1
0,1.0,1,24485,2.28515625,0.13671875,8.0,0.0,1,1,11,585.082824707031,189.537750244141,0,1,objects,small,1,1,faces,P,female,VS,I,122,E03,508.306640625,0
0,1.0,0,24509,0.76953125,0.123046875,3.0,1.0,6,20,5,744.4677734375,206.257522583008,0,1,objects,small,1,1,faces,P,female,VS,I,123,E03,512.505859375,0
0,1.0,1,25316,2.0,0.119140625,6.0,0.0,12,45,11,950.493347167969,938.412780761719,0,1,objects,big,1,1,faces,P,male,VS,I,141,E03,588.091796875,0
0,1.0,0,23108,0.45703125,0.109375,2.0,1.0,3,25,2,771.5869140625,747.442932128906,0,1,objects,small,1,1,objects,P,big,VS,O,2,E04,4.400390625,1
0,1.0,0,23109,0.603515625,0.201171875,3.0,1.0,1,5,3,533.082275390625,525.327209472656,0,1,objects,big,1,1,objects,P,big,VS,O,2,E04,4.400390625,1
0,1.0,0,23169,0.486328125,0.111328125,2.0,1.0,2,11,2,632.425537109375,216.064514160156,0,1,objects,small,1,1,objects,P,small,VS,O,4,E04,12.798828125,1
0,1.0,0,23224,0.900390625,0.240234375,2.0,1.0,4,17,5,611.873352050781,836.572814941406,0,1,objects,big,1,1,faces,P,male,VS,I,6,E04,21.197265625,0
0,1.0,0,23227,1.453125,0.1171875,4.0,1.0,7,38,8,945.910217285156,289.681488037109,0,1,objects,small,1,1,faces,P,male,VS,I,6,E04,21.197265625,0
0,1.0,0,24842,1.126953125,0.185546875,3.0,1.0,4,15,5,664.263366699219,603.13427734375,0,1,objects,small,1,1,objects,P,small,VS,O,73,E04,302.544921875,1
0,1.0,0,24847,2.248046875,0.138671875,7.0,0.0,14,70,10,1260.0107421875,724.873657226562,0,1,objects,big,1,1,objects,P,small,VS,O,73,E04,302.544921875,1
0,1.0,0,25364,1.630859375,0.267578125,4.0,1.0,12,74,10,1398.95373535156,268.463165283203,0,1,objects,small,1,1,objects,P,big,VS,O,103,E04,428.521484375,1
0,1.0,0,25846,1.623046875,0.154296875,3.0,1.0,10,53,10,1088.48474121094,829.584777832031,0,1,objects,big,1,1,faces,P,male,VS,I,121,E04,504.107421875,0
0,1.0,0,25966,1.23828125,0.2265625,3.0,1.0,9,50,8,1094.41943359375,551.260314941406,0,1,objects,small,1,1,faces,P,female,VS,F,125,E04,520.904296875,0
0,1.0,0,26331,1.083984375,0.1953125,2.0,1.0,11,68,4,1244.4423828125,567.72705078125,0,1,objects,small,1,1,objects,P,small,VS,O,136,E04,567.095703125,1
0,1.0,0,26900,2.474609375,0.23828125,7.0,0.0,2,13,11,624.411682128906,415.034973144531,0,1,objects,big,1,1,faces,P,female,VS,I,161,E04,672.076171875,0
0,1.0,0,27153,1.380859375,0.193359375,2.0,1.0,7,40,5,959.423828125,485.821960449219,0,1,objects,big,1,1,objects,P,small,VS,O,176,E04,735.064453125,1
0,1.0,0,27583,2.078125,0.111328125,4.0,1.0,15,81,6,1408.24963378906,962.856811523438,0,1,objects,big,1,1,faces,P,female,VS,F,195,E04,814.849609375,0
0,1.0,0,27601,1.03125,0.146484375,3.0,1.0,8,62,4,1196.46008300781,888.897094726562,0,1,objects,small,1,1,faces,P,male,VS,I,196,E04,819.048828125,0
0,1.0,0,27753,1.3515625,0.15625,4.0,1.0,9,52,8,1065.21301269531,773.735473632812,0,1,objects,big,1,1,faces,P,female,VS,F,203,E04,848.443359375,0
1,1.0,1,27773,0.58984375,0.263671875,2.0,1.0,7,26,3,763.50732421875,865.285217285156,0,1,objects,small,1,1,objects,P,small,VS,O,204,E04,852.642578125,1
0,1.0,0,27793,0.90625,0.1015625,2.0,1.0,15,79,4,1370.25280761719,707.794250488281,0,1,objects,big,1,1,objects,P,big,VS,O,205,E04,856.841796875,1
0,1.0,0,27794,1.08984375,0.19921875,3.0,1.0,8,31,5,849.187805175781,471.180389404297,0,1,objects,big,1,1,objects,P,big,VS,O,205,E04,856.841796875,1
0,1.0,0,23113,0.556640625,0.162109375,2.0,1.0,4,14,2,638.741638183594,535.236389160156,0,1,objects,big,1,1,faces,P,male,VS,I,2,E05,4.400390625,0
0,1.0,0,23114,0.775390625,0.185546875,3.0,1.0,5,25,3,723.580261230469,762.073547363281,0,1,objects,big,1,1,faces,P,male,VS,I,2,E05,4.400390625,0
0,1.0,0,23116,1.177734375,0.17578125,4.0,1.0,9,56,5,1164.36730957031,249.487609863281,0,1,objects,small,1,1,faces,P,male,VS,I,2,E05,4.400390625,0
0,1.0,0,23117,1.39453125,0.197265625,5.0,0.0,10,64,6,1248.2802734375,171.180999755859,0,1,objects,small,1,1,faces,P,male,VS,I,2,E05,4.400390625,0
0,1.0,0,23481,0.6640625,0.154296875,3.0,1.0,1,3,4,547.102661132812,329.0693359375,0,1,objects,small,1,1,objects,P,small,VS,O,13,E05,50.591796875,1
0,1.0,0,23554,1.23046875,0.181640625,5.0,0.0,2,10,7,688.707885742188,154.009857177734,0,1,objects,small,1,1,faces,P,female,VS,I,15,E05,58.990234375,0
0,1.0,0,24064,0.62890625,0.126953125,2.0,1.0,4,8,3,582.595397949219,876.773193359375,0,1,objects,big,1,1,faces,P,female,VS,F,32,E05,130.376953125,0
0,1.0,1,24134,0.755859375,0.10546875,2.0,1.0,3,14,5,656.282104492188,573.832336425781,0,1,objects,big,1,1,objects,P,small,VS,O,34,E05,138.775390625,1
1,1.0,0,24137,1.24609375,0.15625,4.0,1.0,9,57,8,1162.24768066406,335.880432128906,0,1,objects,big,1,1,objects,P,small,VS,O,34,E05,138.775390625,1
0,1.0,0,24203,0.47265625,0.173828125,2.0,1.0,1,4,3,540.760681152344,454.238494873047,0,1,objects,big,1,1,objects,P,big,VS,O,36,E05,147.173828125,1
0,1.0,0,24205,0.84375,0.107421875,3.0,1.0,5,48,5,1052.30480957031,333.542541503906,0,1,objects,small,1,1,objects,P,big,VS,O,36,E05,147.173828125,1
0,1.0,0,24341,1.427734375,0.12890625,5.0,0.0,13,61,6,1144.80224609375,744.017272949219,0,1,objects,small,1,1,faces,P,male,VS,F,40,E05,163.970703125,0
0,1.0,0,24565,0.6171875,0.13671875,2.0,1.0,10,52,3,1060.13244628906,744.911804199219,0,1,objects,big,1,1,faces,P,female,VS,F,47,E05,193.365234375,0
0,1.0,0,24942,0.97265625,0.1640625,2.0,1.0,10,65,6,1254.81628417969,212.547805786133,0,1,objects,big,1,1,faces,P,female,VS,F,59,E05,243.755859375,0
1,1.0,0,24970,1.12109375,0.1328125,3.0,1.0,13,66,6,1225.2763671875,348.454650878906,0,1,objects,big,1,1,objects,P,small,VS,O,60,E05,247.955078125,1
0,1.0,0,25247,1.25,0.10546875,4.0,1.0,12,65,5,1255.37048339844,208.905792236328,0,1,objects,small,1,1,objects,P,big,VS,O,69,E05,285.748046875,1
0,1.0,0,25254,2.544921875,0.10546875,7.0,0.0,3,17,12,619.870849609375,857.339965820312,0,1,objects,big,1,1,objects,P,big,VS,O,69,E05,285.748046875,1
0,1.0,0,25639,1.09375,0.126953125,2.0,1.0,12,54,5,1030.85583496094,912.561889648438,0,1,objects,small,1,1,objects,P,big,VS,O,75,E05,310.943359375,1
1,1.0,0,25831,0.994140625,0.16796875,2.0,1.0,3,11,5,616.762817382812,221.718276977539,0,1,objects,big,1,1,faces,P,female,VS,F,81,E05,336.138671875,0
0,1.0,0,25835,1.900390625,0.154296875,6.0,0.0,13,70,9,1242.61535644531,772.783874511719,0,1,objects,small,1,1,faces,P,female,VS,F,81,E05,336.138671875,0
0,1.0,0,25863,0.9765625,0.189453125,2.0,1.0,6,30,4,838.1376953125,311.961730957031,0,1,objects,small,1,1,objects,P,big,VS,O,82,E05,340.337890625,1
1,1.0,0,26684,0.61328125,0.177734375,2.0,1.0,6,13,3,667.460021972656,461.476959228516,0,1,objects,small,1,1,objects,P,small,VS,O,109,E05,453.716796875,1
0,1.0,0,26781,0.546875,0.189453125,2.0,1.0,9,31,2,840.564270019531,414.198211669922,0,1,objects,big,1,1,faces,P,female,VS,F,112,E05,466.314453125,0
0,1.0,0,26782,0.771484375,0.130859375,3.0,1.0,8,30,3,851.333801269531,339.906585693359,0,1,objects,big,1,1,faces,P,female,VS,F,112,E05,466.314453125,0
0,1.0,0,26943,0.919921875,0.240234375,3.0,1.0,2,4,4,561.145935058594,419.127227783203,0,1,objects,big,1,1,faces,P,female,VS,F,117,E05,487.310546875,0
0,1.0,0,26944,1.212890625,0.13671875,4.0,1.0,5,12,5,622.159240722656,323.589202880859,0,1,objects,big,1,1,faces,P,female,VS,F,117,E05,487.310546875,0
0,1.0,0,26951,2.638671875,0.220703125,10.0,0.0,12,64,12,1244.46887207031,142.218765258789,0,1,objects,small,1,1,faces,P,female,VS,F,117,E05,487.310546875,0
0,1.0,0,26952,2.9375,0.115234375,11.0,0.0,15,78,13,1322.35827636719,622.429809570312,0,1,objects,small,1,1,faces,P,female,VS,F,117,E05,487.310546875,0
0,1.0,0,26975,0.9140625,0.166015625,3.0,1.0,12,66,5,1292.15051269531,308.150543212891,0,1,objects,small,1,1,objects,P,small,VS,O,118,E05,491.509765625,1
1,1.0,0,27161,1.853515625,0.11328125,5.0,0.0,12,65,10,1253.88195800781,247.339813232422,0,1,objects,small,1,1,objects,P,small,VS,O,124,E05,516.705078125,1
0,1.0,0,27318,3.076171875,0.171875,9.0,0.0,12,61,15,1120.76867675781,775.131042480469,0,1,objects,big,1,1,faces,P,female,VS,I,129,E05,537.701171875,0
0,1.0,0,27319,3.30859375,0.240234375,10.0,0.0,6,27,16,755.163757324219,979.310119628906,0,1,objects,big,1,1,faces,P,female,VS,I,129,E05,537.701171875,0
0,1.0,1,27531,1.53515625,0.14453125,5.0,0.0,8,36,7,903.770385742188,893.236267089844,0,1,objects,big,1,1,faces,P,male,VS,F,136,E05,567.095703125,0
0,1.0,0,27657,2.181640625,0.234375,6.0,0.0,7,47,12,1023.42156982422,234.68913269043,0,1,objects,big,1,1,faces,P,female,VS,I,140,E05,583.892578125,0
0,1.0,0,27659,2.62109375,0.25,8.0,0.0,12,66,14,1266.68322753906,339.405212402344,0,1,objects,small,1,1,faces,P,female,VS,I,140,E05,583.892578125,0
0,1.0,0,27660,2.904296875,0.16796875,9.0,0.0,11,65,15,1252.11682128906,278.138031005859,0,1,objects,small,1,1,faces,P,female,VS,I,140,E05,583.892578125,0
0,1.0,0,27661,3.125,0.1796875,10.0,0.0,8,55,16,1130.28234863281,168.750305175781,0,1,objects,big,1,1,faces,P,female,VS,I,140,E05,583.892578125,0
0,1.0,0,27730,0.57421875,0.138671875,2.0,1.0,3,11,3,675.758544921875,285.457336425781,0,1,objects,small,1,1,objects,P,big,VS,O,143,E05,596.490234375,1
0,1.0,0,27992,1.138671875,0.251953125,3.0,1.0,6,30,6,846.336059570312,337.641754150391,0,1,objects,small,1,1,faces,P,female,VS,F,146,E05,609.087890625,0
0,1.0,0,27998,2.51171875,0.19140625,8.0,0.0,13,57,12,1156.42797851562,353.998779296875,0,1,objects,small,1,1,faces,P,female,VS,F,146,E05,609.087890625,0
0,1.0,0,28237,0.740234375,0.173828125,2.0,1.0,9,40,4,972.232238769531,431.217346191406,0,1,objects,small,1,1,objects,P,big,VS,O,154,E05,642.681640625,1
0,1.0,0,28239,1.115234375,0.2734375,3.0,1.0,13,68,6,1263.95568847656,544.017944335938,0,1,objects,big,1,1,objects,P,big,VS,O,154,E05,642.681640625,1
0,1.0,0,28265,0.708984375,0.150390625,3.0,1.0,2,2,3,543.874084472656,239.738708496094,0,1,objects,small,1,1,faces,P,male,VS,F,155,E05,646.880859375,0
0,1.0,0,28278,3.404296875,0.154296875,11.0,0.0,3,8,16,538.080078125,858.239807128906,0,1,objects,small,1,1,faces,P,male,VS,F,155,E05,646.880859375,0
0,1.0,0,28389,0.412109375,0.15234375,2.0,1.0,2,4,2,543.478454589844,456.196319580078,0,1,objects,big,1,1,objects,P,big,VS,O,159,E05,663.677734375,1
0,1.0,0,28390,0.62109375,0.224609375,3.0,1.0,1,2,3,545.232421875,249.754623413086,0,1,objects,small,1,1,objects,P,big,VS,O,159,E05,663.677734375,1
1,1.0,0,28486,0.66015625,0.166015625,2.0,1.0,3,22,3,722.949523925781,450.675170898438,0,1,objects,big,1,1,objects,P,small,VS,O,162,E05,676.275390625,1
0,1.0,0,28487,0.89453125,0.18359375,3.0,1.0,2,7,4,519.137023925781,762.53564453125,0,1,objects,small,1,1,objects,P,small,VS,O,162,E05,676.275390625,1
0,1.0,0,28490,1.58203125,0.125,6.0,0.0,9,53,7,1072.07775878906,844.962280273438,0,1,objects,small,1,1,objects,P,small,VS,O,162,E05,676.275390625,1
0,1.0,0,28492,1.91796875,0.173828125,7.0,0.0,11,69,9,1250.71362304688,636.328247070312,0,1,objects,big,1,1,objects,P,small,VS,O,162,E05,676.275390625,1
0,1.0,0,28755,0.662109375,0.103515625,2.0,1.0,3,8,3,525.968200683594,840.77099609375,0,1,objects,big,1,1,objects,P,small,VS,O,171,E05,714.068359375,1
0,1.0,0,29108,0.888671875,0.12109375,2.0,1.0,13,58,4,1131.11010742188,449.787017822266,0,1,objects,big,1,1,faces,P,female,VS,I,183,E05,764.458984375,0
0,1.0,0,29195,0.611328125,0.166015625,2.0,1.0,14,77,3,1375.22473144531,568.457885742188,0,1,objects,small,1,1,objects,P,big,VS,O,186,E05,777.056640625,1
0,1.0,0,29230,1.46484375,0.1171875,3.0,1.0,7,22,7,747.546813964844,425.703155517578,0,1,objects,big,1,1,faces,P,female,VS,I,187,E05,781.255859375,0
0,1.0,0,29253,0.51953125,0.169921875,2.0,1.0,13,49,2,1055.93969726562,444.665618896484,0,1,objects,big,1,1,objects,P,big,VS,O,188,E05,785.455078125,1
0,1.0,0,29283,0.392578125,0.11328125,2.0,1.0,6,33,2,865.376770019531,655.544067382812,0,1,objects,small,1,1,faces,P,female,VS,I,189,E05,789.654296875,0
0,1.0,0,29793,0.705078125,0.27734375,3.0,1.0,5,39,3,994.338134765625,332.347351074219,0,1,objects,big,1,1,faces,P,female,VS,I,207,E05,865.240234375,0
0,1.0,0,23607,1.037109375,0.203125,4.0,1.0,1,5,6,542.168212890625,535.508850097656,0,1,objects,big,1,1,objects,P,big,VS,O,2,E12,4.400390625,1
0,1.0,0,23608,1.3125,0.291015625,5.0,0.0,3,25,7,768.621398925781,745.078674316406,0,1,objects,small,1,1,objects,P,big,VS,O,2,E12,4.400390625,1
0,1.0,1,23609,1.6875,0.109375,6.0,0.0,15,80,8,1330.06359863281,816.8525390625,0,1,objects,big,1,1,objects,P,big,VS,O,2,E12,4.400390625,1
0,1.0,0,23612,2.380859375,0.146484375,7.0,0.0,13,66,11,1255.697265625,332.087005615234,0,1,objects,small,1,1,objects,P,big,VS,O,2,E12,4.400390625,1
0,1.0,0,23778,0.87890625,0.16796875,4.0,1.0,3,4,4,555.605895996094,435.438903808594,0,1,objects,big,1,1,objects,P,big,VS,O,7,E12,25.396484375,1
0,1.0,0,23781,1.55078125,0.22265625,7.0,0.0,12,71,7,1235.59448242188,830.570678710938,0,1,objects,small,1,1,objects,P,big,VS,O,7,E12,25.396484375,1
0,1.0,0,24152,1.33203125,0.189453125,2.0,1.0,4,31,6,830.2451171875,465.251403808594,0,1,objects,small,1,1,faces,P,female,VS,F,19,E12,75.787109375,0
0,1.0,0,24782,0.703125,0.14453125,2.0,1.0,5,28,4,857.823974609375,158.98974609375,0,1,objects,big,1,1,faces,P,female,VS,I,39,E12,159.771484375,0
0,1.0,0,24788,2.037109375,0.134765625,6.0,0.0,11,62,10,1183.21118164062,842.55908203125,0,1,objects,big,1,1,faces,P,female,VS,I,39,E12,159.771484375,0
0,1.0,0,24890,2.607421875,0.185546875,8.0,0.0,1,1,13,527.343811035156,109.819625854492,0,1,objects,big,1,1,faces,P,female,VS,I,42,E12,172.369140625,0
0,1.0,0,24916,2.30078125,0.115234375,7.0,0.0,7,38,10,957.2373046875,236.585952758789,0,1,objects,small,1,1,faces,P,female,VS,F,43,E12,176.568359375,0
0,1.0,0,25046,1.40625,0.1328125,3.0,1.0,6,36,8,838.085998535156,916.590270996094,0,1,objects,big,1,1,faces,P,male,VS,I,48,E12,197.564453125,0
0,1.0,1,25087,0.822265625,0.1171875,2.0,1.0,14,70,4,1267.67443847656,770.330017089844,0,1,objects,big,1,1,objects,P,small,VS,O,50,E12,205.962890625,1
0,1.0,1,25256,1.05078125,0.158203125,3.0,1.0,2,15,6,674.028442382812,602.31396484375,0,1,objects,small,1,1,objects,P,big,VS,O,56,E12,231.158203125,1
0,1.0,0,25261,1.9453125,0.1953125,5.0,0.0,11,60,11,1160.54724121094,612.447387695312,0,1,objects,big,1,1,objects,P,big,VS,O,56,E12,231.158203125,1
0,1.0,0,25262,2.22265625,0.40234375,6.0,0.0,7,42,12,971.475952148438,611.390197753906,0,1,objects,small,1,1,objects,P,big,VS,O,56,E12,231.158203125,1
0,1.0,0,25535,1.265625,0.25,3.0,1.0,10,52,7,1070.03332519531,725.134948730469,0,1,objects,big,1,1,objects,P,small,VS,O,65,E12,268.951171875,1
0,1.0,0,26175,0.82421875,0.103515625,2.0,1.0,8,37,4,925.100402832031,124.239082336426,0,1,objects,small,1,1,objects,P,big,VS,O,80,E12,331.939453125,1
0,1.0,0,26626,1.80078125,0.166015625,6.0,0.0,5,43,9,965.388122558594,783.475158691406,0,1,objects,big,1,1,faces,P,female,VS,I,96,E12,399.126953125,0
0,1.0,0,26696,1.009765625,0.1015625,3.0,1.0,11,73,6,1330.80480957031,111.191352844238,0,1,objects,big,1,1,faces,P,male,VS,F,98,E12,407.525390625,0
0,1.0,0,27608,0.662109375,0.15234375,2.0,1.0,6,23,3,750.207580566406,524.042358398438,0,1,objects,big,1,1,faces,P,female,VS,F,125,E12,520.904296875,0
0,1.0,0,27609,0.869140625,0.12890625,3.0,1.0,3,15,4,665.4091796875,674.067138671875,0,1,objects,small,1,1,faces,P,female,VS,F,125,E12,520.904296875,0
0,1.0,0,27675,1.701171875,0.1640625,6.0,0.0,1,3,8,563.546569824219,382.540466308594,0,1,objects,small,1,1,faces,P,female,VS,F,128,E12,533.501953125,0
0,1.0,0,27756,0.712890625,0.24609375,2.0,1.0,5,26,3,774.471740722656,814.925598144531,0,1,objects,small,1,1,objects,P,big,VS,O,131,E12,546.099609375,1
0,1.0,0,27900,1.06640625,0.185546875,2.0,1.0,15,80,5,1340.78747558594,800.294067382812,0,1,objects,big,1,1,objects,P,small,VS,O,136,E12,567.095703125,1
0,1.0,0,27901,1.30078125,0.1171875,3.0,1.0,14,79,6,1351.73864746094,694.845520019531,0,1,objects,small,1,1,objects,P,small,VS,O,136,E12,567.095703125,1
0,1.0,0,27902,1.46875,0.173828125,4.0,1.0,11,68,7,1282.9794921875,571.589599609375,0,1,objects,small,1,1,objects,P,small,VS,O,136,E12,567.095703125,1
0,1.0,0,28470,0.724609375,0.1953125,3.0,1.0,14,79,3,1342.24487304688,749.621826171875,0,1,objects,big,1,1,objects,P,small,VS,O,149,E12,621.685546875,1
0,1.0,1,28471,1.029296875,0.181640625,4.0,1.0,11,59,4,1118.65356445312,564.464904785156,0,1,objects,big,1,1,objects,P,small,VS,O,149,E12,621.685546875,1
0,1.0,0,28476,2.02734375,0.197265625,6.0,0.0,15,81,9,1313.83471679688,921.013244628906,0,1,objects,big,1,1,objects,P,small,VS,O,149,E12,621.685546875,1
0,1.0,0,28537,2.4609375,0.154296875,7.0,0.0,13,58,12,1157.6123046875,394.192657470703,0,1,objects,big,1,1,faces,P,female,VS,I,151,E12,630.083984375,0
0,1.0,0,29496,0.599609375,0.142578125,3.0,1.0,1,1,4,572.965026855469,167.655426025391,0,1,objects,small,1,1,objects,P,big,VS,O,172,E12,718.267578125,1
0,1.0,1,29498,0.951171875,0.111328125,4.0,1.0,2,6,6,545.365600585938,661.514709472656,0,1,objects,small,1,1,objects,P,big,VS,O,172,E12,718.267578125,1
0,1.0,0,29503,1.857421875,0.15234375,8.0,0.0,14,64,11,1246.68688964844,161.542510986328,0,1,objects,big,1,1,objects,P,big,VS,O,172,E12,718.267578125,1
0,1.0,0,30210,1.337890625,0.1875,3.0,1.0,1,2,7,602.614807128906,212.445510864258,0,1,objects,small,1,1,faces,P,male,VS,I,199,E12,831.646484375,0
0,1.0,0,30211,1.623046875,0.263671875,4.0,1.0,14,65,8,1255.62426757812,232.691513061523,0,1,objects,big,1,1,faces,P,male,VS,I,199,E12,831.646484375,0
0,1.0,0,30213,2.15625,0.126953125,5.0,0.0,12,45,10,940.306640625,907.762329101562,0,1,objects,big,1,1,faces,P,male,VS,I,199,E12,831.646484375,0
0,1.0,0,30303,1.142578125,0.13671875,4.0,1.0,14,70,6,1251.22229003906,707.733947753906,0,1,objects,small,1,1,faces,P,female,VS,F,203,E12,848.443359375,0
0,1.0,0,30328,0.544921875,0.232421875,2.0,1.0,3,12,2,637.475158691406,292.237976074219,0,1,objects,big,1,1,objects,P,small,VS,O,204,E12,852.642578125,1
0,1.0,0,30329,0.861328125,0.16015625,3.0,1.0,7,26,3,751.069946289062,820.917114257812,0,1,objects,small,1,1,objects,P,small,VS,O,204,E12,852.642578125,1
0,1.0,0,30353,1.37109375,0.12890625,6.0,0.0,13,72,8,1245.37707519531,907.889953613281,0,1,objects,small,1,1,objects,P,big,VS,O,205,E12,856.841796875,1
0,1.0,1,30369,0.853515625,0.1484375,2.0,1.0,2,3,4,592.116271972656,378.243560791016,0,1,objects,small,1,1,objects,P,big,VS,O,206,E12,861.041015625,1
0,1.0,0,24745,0.69140625,0.173828125,2.0,1.0,3,25,4,778.880432128906,774.622192382812,0,1,objects,small,1,1,objects,P,big,VS,O,2,E14,4.400390625,1
0,1.0,0,24753,2.060546875,0.171875,6.0,0.0,15,80,12,1385.74890136719,880.964904785156,0,1,objects,big,1,1,objects,P,big,VS,O,2,E14,4.400390625,1
0,1.0,0,24916,0.869140625,0.1953125,2.0,1.0,10,60,5,1174.24890136719,682.968566894531,0,1,objects,small,1,1,objects,P,big,VS,O,7,E14,25.396484375,1
1,1.0,0,24917,1.107421875,0.134765625,3.0,1.0,12,71,6,1310.02673339844,831.246154785156,0,1,objects,small,1,1,objects,P,big,VS,O,7,E14,25.396484375,1
1,1.0,0,24918,1.26171875,0.12109375,4.0,1.0,11,70,7,1290.69177246094,785.073974609375,0,1,objects,big,1,1,objects,P,big,VS,O,7,E14,25.396484375,1
0,1.0,0,25310,0.7578125,0.109375,2.0,1.0,7,45,3,997.30517578125,964.295227050781,0,1,objects,big,1,1,faces,P,female,VS,F,19,E14,75.787109375,0
0,1.0,0,25684,1.640625,0.205078125,4.0,1.0,11,65,9,1254.65979003906,212.502136230469,0,1,objects,small,1,1,objects,P,small,VS,O,32,E14,130.376953125,1
0,1.0,0,25685,1.884765625,0.220703125,5.0,0.0,7,46,10,1048.83972167969,131.536773681641,0,1,objects,big,1,1,objects,P,small,VS,O,32,E14,130.376953125,1
0,1.0,0,25810,0.94140625,0.18359375,5.0,0.0,14,73,5,1365.83178710938,189.133102416992,0,1,objects,big,1,1,objects,P,small,VS,O,36,E14,147.173828125,1
0,1.0,0,25813,1.482421875,0.162109375,7.0,0.0,10,45,8,988.302124023438,893.348571777344,0,1,objects,small,1,1,objects,P,small,VS,O,36,E14,147.173828125,1
0,1.0,0,25955,0.66796875,0.16015625,2.0,1.0,10,49,4,1058.85290527344,427.890014648438,0,1,objects,small,1,1,faces,P,female,VS,F,41,E14,168.169921875,0
0,1.0,1,25956,0.873046875,0.15234375,3.0,1.0,5,19,5,729.469177246094,182.781280517578,0,1,objects,small,1,1,faces,P,female,VS,F,41,E14,168.169921875,0
0,1.0,0,26208,0.673828125,0.15625,2.0,1.0,15,76,3,1364.07543945312,405.252655029297,0,1,objects,big,1,1,faces,P,male,VS,F,49,E14,201.763671875,0
0,1.0,0,26380,1.67578125,0.2109375,6.0,0.0,8,52,9,1064.23791503906,743.746948242188,0,1,objects,small,1,1,objects,P,big,VS,O,56,E14,231.158203125,1
0,1.0,0,26382,2.17578125,0.189453125,8.0,0.0,11,60,11,1184.83581542969,671.177429199219,0,1,objects,big,1,1,objects,P,big,VS,O,56,E14,231.158203125,1
0,1.0,0,26948,1.8203125,0.123046875,3.0,1.0,2,14,12,656.005737304688,537.751892089844,0,1,objects,small,1,1,faces,P,male,VS,I,72,E14,298.345703125,0
0,1.0,1,27519,1.0703125,0.13671875,3.0,1.0,3,20,6,769.254028320312,287.555816650391,0,1,objects,small,1,1,objects,P,small,VS,O,79,E14,327.740234375,1
0,1.0,0,27638,1.80078125,0.1328125,4.0,1.0,10,52,11,1097.19299316406,772.054260253906,0,1,objects,small,1,1,faces,P,female,VS,F,82,E14,340.337890625,0
0,1.0,1,27903,2.365234375,0.111328125,3.0,1.0,7,49,9,1019.55450439453,398.973388671875,0,1,objects,big,1,1,faces,P,female,VS,F,90,E14,373.931640625,0
0,1.0,0,28150,0.421875,0.150390625,2.0,1.0,15,79,2,1320.87438964844,710.693481445312,0,1,objects,small,1,1,faces,P,female,VS,F,97,E14,403.326171875,0
0,1.0,1,29098,1.634765625,0.15234375,6.0,0.0,3,15,10,665.605651855469,681.246520996094,0,1,objects,small,1,1,faces,P,female,VS,F,125,E14,520.904296875,0
0,1.0,1,29103,2.384765625,0.111328125,7.0,0.0,6,23,15,784.080444335938,505.671325683594,0,1,objects,big,1,1,faces,P,female,VS,F,125,E14,520.904296875,0
0,1.0,0,29107,3.08984375,0.103515625,9.0,0.0,2,8,19,516.844970703125,878.134704589844,0,1,objects,big,1,1,faces,P,female,VS,F,125,E14,520.904296875,0
0,1.0,0,29224,0.44140625,0.158203125,2.0,1.0,12,69,2,1297.96496582031,686.06396484375,0,1,objects,big,1,1,objects,P,small,VS,O,130,E14,541.900390625,1
0,1.0,0,29228,1.078125,0.138671875,5.0,0.0,7,25,6,749.206726074219,715.381713867188,0,1,objects,big,1,1,objects,P,small,VS,O,130,E14,541.900390625,1
0,1.0,0,29413,0.6796875,0.162109375,3.0,1.0,14,79,4,1407.57458496094,752.901428222656,0,1,objects,small,1,1,objects,P,small,VS,O,136,E14,567.095703125,1
0,1.0,0,29597,1.609375,0.138671875,4.0,1.0,4,11,8,642.240600585938,270.585205078125,0,1,objects,small,1,1,faces,P,female,VS,I,143,E14,596.490234375,0
0,1.0,0,29632,2.537109375,0.12890625,5.0,0.0,8,56,12,1164.5498046875,246.145141601562,0,1,objects,small,1,1,objects,P,small,VS,O,144,E14,600.689453125,1
0,1.0,0,30038,1.21484375,0.189453125,3.0,1.0,1,5,9,554.464050292969,547.4755859375,0,1,objects,big,1,1,objects,P,big,VS,O,150,E14,625.884765625,1
0,1.0,1,30077,1.30859375,0.142578125,4.0,1.0,13,58,7,1154.57104492188,459.156799316406,0,1,objects,big,1,1,faces,P,female,VS,I,151,E14,630.083984375,0
0,1.0,0,30232,3.21875,0.203125,10.0,0.0,15,80,15,1366.00708007812,860.432312011719,0,1,objects,big,1,1,faces,P,male,VS,F,156,E14,651.080078125,0
0,1.0,0,30743,0.83984375,0.125,2.0,1.0,6,16,4,660.9921875,759.204895019531,0,1,objects,small,1,1,faces,P,female,VS,F,173,E14,722.466796875,0
0,1.0,0,30849,0.73828125,0.1640625,3.0,1.0,13,64,4,1269.90759277344,151.986679077148,0,1,objects,big,1,1,objects,P,small,VS,O,176,E14,735.064453125,1
0,1.0,0,30852,1.64453125,0.3046875,4.0,1.0,7,40,7,936.009521484375,445.871337890625,0,1,objects,big,1,1,objects,P,small,VS,O,176,E14,735.064453125,1
0,1.0,0,30951,1.142578125,0.16796875,3.0,1.0,7,34,6,877.403991699219,770.050720214844,0,1,objects,big,1,1,faces,P,female,VS,I,180,E14,751.861328125,0
0,1.0,0,30962,0.6796875,0.1484375,2.0,1.0,5,18,4,641.423828125,893.312194824219,0,1,objects,big,1,1,faces,P,female,VS,I,181,E14,756.060546875,0
0,1.0,1,31432,2.951171875,0.14453125,6.0,0.0,7,32,12,903.919128417969,504.841491699219,0,1,objects,small,1,1,faces,P,female,VS,F,195,E14,814.849609375,0
0,1.0,0,31458,0.728515625,0.109375,2.0,1.0,13,77,3,1360.30395507812,495.424835205078,0,1,objects,big,1,1,faces,P,male,VS,I,196,E14,819.048828125,0
0,1.0,0,31717,0.98046875,0.2421875,3.0,1.0,15,79,5,1350.11352539062,754.226196289062,0,1,objects,big,1,1,objects,P,big,VS,O,205,E14,856.841796875,1
0,1.0,0,31994,2.015625,0.19921875,5.0,0.0,3,29,10,853.784606933594,249.47834777832,0,1,objects,small,1,1,faces,P,male,VS,I,215,E14,898.833984375,0
0,1.0,0,31995,2.28515625,0.189453125,6.0,0.0,14,77,11,1333.35949707031,532.896118164062,0,1,objects,small,1,1,faces,P,male,VS,I,215,E14,898.833984375,0
0,1.0,0,23965,2.748046875,0.3125,7.0,0.0,8,41,12,945.991577148438,544.763366699219,0,1,objects,small,1,1,faces,P,male,VS,I,7,J03,25.396484375,0
0,1.0,0,24475,2.865234375,0.16015625,8.0,0.0,1,3,15,539.82958984375,377.111053466797,0,1,objects,big,1,1,faces,P,male,VS,I,23,J03,92.583984375,0
0,1.0,0,24532,2.333984375,0.1171875,6.0,0.0,14,79,12,1334.47033691406,763.565063476562,0,1,objects,big,1,1,faces,P,male,VS,F,25,J03,100.982421875,0
0,1.0,0,24611,1.6171875,0.107421875,3.0,1.0,11,69,9,1265.32202148438,649.548034667969,0,1,objects,big,1,1,faces,P,female,VS,F,28,J03,113.580078125,0
0,1.0,0,24635,0.552734375,0.201171875,2.0,1.0,15,79,3,1351.33666992188,713.357788085938,0,1,objects,small,1,1,objects,P,big,VS,O,29,J03,117.779296875,1
0,1.0,0,24873,1.484375,0.12109375,2.0,1.0,5,13,8,616.570617675781,399.485382080078,0,1,objects,small,1,1,objects,P,small,VS,O,37,J03,151.373046875,1
0,1.0,0,25084,1.1953125,0.109375,5.0,0.0,9,60,7,1157.09655761719,640.58642578125,0,1,objects,small,1,1,objects,P,small,VS,O,44,J03,180.767578125,1
0,1.0,0,25166,0.3984375,0.15625,2.0,1.0,11,50,2,1093.84301757812,571.777038574219,0,1,objects,small,1,1,faces,P,male,VS,I,47,J03,193.365234375,0
0,1.0,0,25170,1.130859375,0.19921875,5.0,0.0,7,21,6,758.000244140625,292.019134521484,0,1,objects,big,1,1,faces,P,male,VS,I,47,J03,193.365234375,0
0,1.0,0,25766,1.0234375,0.291015625,2.0,1.0,1,2,2,540.153625488281,192.99853515625,0,1,objects,big,1,1,objects,P,big,VS,O,68,J03,281.548828125,1
0,1.0,0,27686,0.328125,0.15625,2.0,1.0,10,52,2,1052.35693359375,731.296997070312,0,1,objects,big,1,1,objects,P,big,VS,O,127,J03,529.302734375,1
0,1.0,0,27688,0.693359375,0.234375,4.0,1.0,9,46,4,1089.80627441406,158.567596435547,0,1,objects,small,1,1,objects,P,big,VS,O,127,J03,529.302734375,1
0,1.0,0,27843,0.7578125,0.20703125,2.0,1.0,12,58,4,1170.23779296875,430.294860839844,0,1,objects,big,1,1,objects,P,small,VS,O,133,J03,554.498046875,1
0,1.0,0,28035,1.255859375,0.251953125,4.0,1.0,14,77,6,1382.60852050781,550.374633789062,0,1,objects,big,1,1,faces,P,male,VS,F,141,J03,588.091796875,0
1,1.0,0,28036,1.560546875,0.27734375,5.0,0.0,5,22,7,757.544860839844,466.528442382812,0,1,objects,small,1,1,faces,P,male,VS,F,141,J03,588.091796875,0
0,1.0,0,28338,0.970703125,0.119140625,2.0,1.0,5,30,5,837.357604980469,362.172943115234,0,1,objects,small,1,1,faces,P,male,VS,F,146,J03,609.087890625,0
0,1.0,0,28355,0.564453125,0.15625,2.0,1.0,9,47,3,1057.38256835938,252.945159912109,0,1,objects,big,1,1,objects,P,big,VS,O,147,J03,613.287109375,1
0,1.0,0,28449,0.755859375,0.12109375,2.0,1.0,4,19,4,725.180847167969,138.88996887207,0,1,objects,big,1,1,objects,P,big,VS,O,151,J03,630.083984375,1
0,1.0,1,28450,0.9296875,0.251953125,3.0,1.0,12,67,5,1251.9189453125,393.172027587891,0,1,objects,small,1,1,objects,P,big,VS,O,151,J03,630.083984375,1
0,1.0,0,28505,2.5,0.220703125,11.0,0.0,3,9,14,511.536437988281,927.507934570312,0,1,objects,big,1,1,faces,P,male,VS,I,153,J03,638.482421875,0
0,1.0,1,28506,2.759765625,0.15625,12.0,0.0,2,3,15,608.806274414062,385.880432128906,0,1,objects,small,1,1,faces,P,male,VS,I,153,J03,638.482421875,0
0,1.0,0,28508,3.119140625,0.23046875,13.0,0.0,5,23,17,744.382934570312,526.628234863281,0,1,objects,small,1,1,faces,P,male,VS,I,153,J03,638.482421875,0
0,1.0,1,28509,3.384765625,0.1171875,14.0,0.0,6,29,18,873.975830078125,266.55224609375,0,1,objects,big,1,1,faces,P,male,VS,I,153,J03,638.482421875,0
0,1.0,0,28574,0.6484375,0.19140625,2.0,1.0,1,12,3,675.071105957031,320.133270263672,0,1,objects,small,1,1,objects,P,big,VS,O,156,J03,651.080078125,1
0,1.0,0,29088,2.146484375,0.220703125,3.0,1.0,13,71,9,1305.11169433594,863.056640625,0,1,objects,big,1,1,objects,P,small,VS,O,177,J03,739.263671875,1
0,1.0,0,29455,0.607421875,0.126953125,2.0,1.0,11,57,4,1161.66430664062,337.449615478516,0,1,objects,big,1,1,objects,P,big,VS,O,194,J03,810.650390625,1
1,1.0,0,29457,0.90625,0.185546875,3.0,1.0,5,14,6,708.238220214844,535.411315917969,0,1,objects,small,1,1,objects,P,big,VS,O,194,J03,810.650390625,1
0,1.0,0,29486,0.884765625,0.1953125,2.0,1.0,9,30,5,856.979064941406,348.185180664062,0,1,objects,small,1,1,faces,P,female,VS,F,195,J03,814.849609375,0
0,1.0,0,29643,1.212890625,0.236328125,4.0,1.0,2,10,7,621.20751953125,122.64884185791,0,1,objects,small,1,1,faces,P,female,VS,I,202,J03,844.244140625,0
0,1.0,0,29644,1.541015625,0.166015625,5.0,0.0,6,34,8,891.293395996094,767.192810058594,0,1,objects,big,1,1,faces,P,female,VS,I,202,J03,844.244140625,0
0,1.0,0,29681,0.869140625,0.23046875,2.0,1.0,10,46,5,1093.62475585938,177.94108581543,0,1,objects,big,1,1,faces,P,female,VS,F,204,J03,852.642578125,0
0,1.0,1,26607,0.72265625,0.166015625,3.0,1.0,2,10,4,631.948791503906,157.901214599609,0,1,objects,small,1,1,faces,P,female,VS,I,9,J04,33.794921875,0
0,1.0,0,26609,1.09765625,0.150390625,4.0,1.0,13,66,6,1250.33618164062,322.36865234375,0,1,objects,small,1,1,faces,P,female,VS,I,9,J04,33.794921875,0
0,1.0,0,26758,0.353515625,0.25,2.0,1.0,2,22,2,712.396484375,436.486999511719,0,1,objects,big,1,1,objects,P,small,VS,O,16,J04,63.189453125,1
0,1.0,0,26796,0.5,0.22265625,2.0,1.0,1,2,3,585.359497070312,260.051544189453,0,1,objects,small,1,1,objects,P,small,VS,O,18,J04,71.587890625,1
0,1.0,0,26798,1.07421875,0.138671875,4.0,1.0,5,26,5,739.838806152344,832.458557128906,0,1,objects,big,1,1,objects,P,small,VS,O,18,J04,71.587890625,1
0,1.0,0,28077,0.396484375,0.146484375,2.0,1.0,4,15,2,649.030944824219,618.083435058594,0,1,objects,small,1,1,faces,P,male,VS,I,72,J04,298.345703125,0
0,1.0,0,28832,0.705078125,0.326171875,2.0,1.0,8,44,4,999.398193359375,864.357116699219,0,1,objects,big,1,1,objects,P,small,VS,O,124,J04,516.705078125,1
1,1.0,1,29008,0.55859375,0.19921875,2.0,1.0,5,32,2,882.0302734375,580.302001953125,0,1,objects,small,1,1,objects,P,small,VS,O,137,J04,571.294921875,1
0,1.0,0,29083,2.40625,0.142578125,3.0,1.0,11,45,9,938.477722167969,893.184387207031,0,1,objects,small,1,1,faces,P,male,VS,F,141,J04,588.091796875,0
0,1.0,0,29239,0.5546875,0.3671875,2.0,1.0,2,11,3,705.304748535156,230.6328125,0,1,objects,big,1,1,faces,P,female,VS,I,143,J04,596.490234375,0
0,1.0,0,29641,1.1953125,0.173828125,2.0,1.0,6,37,7,920.584350585938,184.896774291992,0,1,objects,big,1,1,faces,P,female,VS,F,167,J04,697.271484375,0
0,1.0,0,30138,1.185546875,0.150390625,2.0,1.0,5,33,4,813.9765625,651.543518066406,0,1,objects,small,1,1,faces,P,male,VS,I,194,J04,810.650390625,0
0,1.0,0,30140,1.673828125,0.177734375,4.0,1.0,7,41,6,991.997192382812,511.3251953125,0,1,objects,big,1,1,faces,P,male,VS,I,194,J04,810.650390625,0
0,1.0,0,17666,1.578125,0.220703125,3.0,1.0,10,31,7,852.713562011719,487.334655761719,0,1,objects,small,1,1,faces,P,male,VS,F,28,J08,113.580078125,0
0,1.0,1,18059,1.5625,0.20703125,2.0,1.0,3,6,6,510.539184570312,617.47509765625,0,1,objects,small,1,1,objects,P,small,VS,O,49,J08,201.763671875,1
0,1.0,0,18168,0.53515625,0.1484375,2.0,1.0,8,42,2,973.286193847656,671.487365722656,0,1,objects,big,1,1,faces,P,female,VS,I,56,J08,231.158203125,0
0,1.0,0,18173,1.728515625,0.23046875,6.0,0.0,12,56,7,1193.72790527344,250.197540283203,0,1,objects,small,1,1,faces,P,female,VS,I,56,J08,231.158203125,0
0,1.0,0,18329,2.037109375,0.197265625,4.0,1.0,7,34,9,814.387817382812,722.423828125,0,1,objects,small,1,1,faces,P,female,VS,I,64,J08,264.751953125,0
0,1.0,0,18360,2.232421875,0.205078125,4.0,1.0,8,40,8,935.30224609375,452.554382324219,0,1,objects,big,1,1,faces,P,female,VS,F,66,J08,273.150390625,0
0,1.0,0,18361,2.498046875,0.32421875,5.0,0.0,11,58,9,1190.08447265625,434.136138916016,0,1,objects,big,1,1,faces,P,female,VS,F,66,J08,273.150390625,0
0,1.0,0,18389,1.583984375,0.259765625,3.0,1.0,6,33,6,866.5673828125,672.81591796875,0,1,objects,small,1,1,faces,P,male,VS,F,68,J08,281.548828125,0
0,1.0,0,18443,0.619140625,0.265625,2.0,1.0,11,73,3,1313.98559570312,165.197143554688,0,1,objects,big,1,1,objects,P,big,VS,O,71,J08,294.146484375,1
0,1.0,1,18907,3.03515625,0.158203125,6.0,0.0,6,17,13,650.34228515625,889.027770996094,0,1,objects,small,1,1,faces,P,male,VS,I,90,J08,373.931640625,0
0,1.0,0,18920,0.46875,0.322265625,2.0,1.0,9,56,3,1129.84033203125,243.364349365234,0,1,objects,small,1,1,objects,P,big,VS,O,91,J08,378.130859375,1
0,1.0,0,19307,0.73046875,0.240234375,2.0,1.0,5,20,3,756.0458984375,242.493545532227,0,1,objects,big,1,1,objects,P,small,VS,O,114,J08,474.712890625,1
0,1.0,0,21227,0.685546875,0.1640625,3.0,1.0,4,29,3,907.981384277344,223.697662353516,0,1,objects,small,1,1,faces,P,female,VS,I,8,J11,29.595703125,0
0,1.0,0,22449,0.556640625,0.232421875,2.0,1.0,13,66,3,1237.79418945312,314.135803222656,0,1,objects,small,1,1,objects,P,small,VS,O,60,J11,247.955078125,1
0,1.0,0,22452,1.341796875,0.23046875,4.0,1.0,7,26,6,722.158630371094,825.550720214844,0,1,objects,big,1,1,objects,P,small,VS,O,60,J11,247.955078125,1
0,1.0,0,22467,1.392578125,0.1484375,3.0,1.0,8,44,6,942.064636230469,850.088134765625,0,1,objects,small,1,1,objects,P,big,VS,O,61,J11,252.154296875,1
0,1.0,0,22479,0.607421875,0.248046875,2.0,1.0,11,71,2,1272.91479492188,796.6279296875,0,1,objects,small,1,1,faces,P,female,VS,F,62,J11,256.353515625,0
0,1.0,0,22589,0.57421875,0.16796875,2.0,1.0,15,77,2,1328.88842773438,559.135559082031,0,1,objects,big,1,1,objects,P,big,VS,O,67,J11,277.349609375,1
0,1.0,0,22954,0.916015625,0.2265625,2.0,1.0,7,38,3,958.618957519531,243.657485961914,0,1,objects,big,1,1,faces,P,female,VS,F,76,J11,315.142578125,0
1,1.0,1,23184,0.748046875,0.21875,3.0,1.0,12,68,3,1254.89562988281,572.208923339844,0,1,objects,small,1,1,objects,P,small,VS,O,87,J11,361.333984375,1
0,1.0,0,23189,1.939453125,0.25390625,6.0,0.0,8,39,8,973.464172363281,339.455108642578,0,1,objects,big,1,1,objects,P,small,VS,O,87,J11,361.333984375,1
0,1.0,0,23529,0.49609375,0.234375,2.0,1.0,14,74,2,1349.82348632812,251.473480224609,0,1,objects,small,1,1,objects,P,big,VS,O,104,J11,432.720703125,1
0,1.0,1,23674,1.021484375,0.23828125,3.0,1.0,11,64,5,1292.00439453125,153.806106567383,0,1,objects,small,1,1,faces,P,male,VS,F,112,J11,466.314453125,0
0,1.0,0,23764,0.81640625,0.26953125,3.0,1.0,2,28,3,842.654174804688,113.563903808594,0,1,objects,big,1,1,objects,P,big,VS,O,117,J11,487.310546875,1
0,1.0,0,23883,1.3984375,0.15625,4.0,1.0,6,41,6,942.594909667969,561.507690429688,0,1,objects,big,1,1,faces,P,male,VS,F,123,J11,512.505859375,0
0,1.0,0,23885,1.775390625,0.212890625,6.0,0.0,1,12,8,686.720947265625,322.1708984375,0,1,objects,big,1,1,faces,P,male,VS,F,123,J11,512.505859375,0
0,1.0,0,23903,1.07421875,0.21484375,3.0,1.0,15,76,4,1340.50866699219,486.125610351562,0,1,objects,big,1,1,faces,P,male,VS,F,124,J11,516.705078125,0
0,1.0,0,23907,2.017578125,0.236328125,6.0,0.0,13,70,8,1260.50695800781,782.674438476562,0,1,objects,small,1,1,faces,P,male,VS,F,124,J11,516.705078125,0
0,1.0,0,24062,1.142578125,0.265625,2.0,1.0,12,62,5,1208.84509277344,864.052856445312,0,1,objects,big,1,1,objects,P,big,VS,O,131,J11,546.099609375,1
1,1.0,0,24063,1.462890625,0.265625,3.0,1.0,8,43,6,926.107543945312,763.33837890625,0,1,objects,small,1,1,objects,P,big,VS,O,131,J11,546.099609375,1
0,1.0,0,24100,1.158203125,0.107421875,4.0,1.0,11,66,4,1283.71936035156,368.018280029297,0,1,objects,big,1,1,objects,P,small,VS,O,133,J11,554.498046875,1
0,1.0,0,24774,0.759765625,0.193359375,2.0,1.0,6,38,3,936.015441894531,246.205032348633,0,1,objects,small,1,1,faces,P,female,VS,I,157,J11,655.279296875,0
0,1.0,0,24895,0.5703125,0.220703125,2.0,1.0,1,2,2,583.673950195312,281.510620117188,0,1,objects,big,1,1,faces,P,male,VS,F,163,J11,680.474609375,0
0,1.0,0,24941,0.611328125,0.234375,2.0,1.0,10,56,3,1123.59521484375,248.876998901367,0,1,objects,small,1,1,objects,P,big,VS,O,165,J11,688.873046875,1
0,1.0,0,25082,0.671875,0.376953125,2.0,1.0,14,78,3,1374.8525390625,638.919799804688,0,1,objects,big,1,1,objects,P,big,VS,O,172,J11,718.267578125,1
1,1.0,0,25083,1.11328125,0.23828125,3.0,1.0,11,65,4,1255.919921875,189.882446289062,0,1,objects,big,1,1,objects,P,big,VS,O,172,J11,718.267578125,1
0,1.0,0,25084,1.384765625,0.154296875,4.0,1.0,8,46,5,1102.56530761719,136.645431518555,0,1,objects,small,1,1,objects,P,big,VS,O,172,J11,718.267578125,1
0,1.0,0,25163,0.642578125,0.16796875,2.0,1.0,1,3,3,570.593994140625,293.084167480469,0,1,objects,big,1,1,faces,P,female,VS,I,176,J11,735.064453125,0
0,1.0,0,25521,0.49609375,0.287109375,2.0,1.0,10,40,3,1001.09228515625,401.479949951172,0,1,objects,small,1,1,objects,P,big,VS,O,195,J11,814.849609375,1
0,1.0,0,25524,1.34765625,0.1796875,5.0,0.0,8,35,6,858.739440917969,825.133850097656,0,1,objects,small,1,1,objects,P,big,VS,O,195,J11,814.849609375,1
0,1.0,0,25816,1.455078125,0.3046875,5.0,0.0,11,45,6,989.942810058594,907.201538085938,0,1,objects,big,1,1,faces,P,male,VS,I,211,J11,882.037109375,0
0,1.0,0,25818,2.111328125,0.228515625,7.0,0.0,7,34,8,853.328857421875,750.610046386719,0,1,objects,small,1,1,faces,P,male,VS,I,211,J11,882.037109375,0
0,1.0,0,25862,1.384765625,0.251953125,3.0,1.0,7,27,4,809.215270996094,947.977416992188,0,1,objects,big,1,1,faces,P,female,VS,I,214,J11,894.634765625,0
0,1.0,1,25867,2.79296875,0.181640625,8.0,0.0,1,2,9,607.408569335938,276.550201416016,0,1,objects,small,1,1,faces,P,female,VS,I,214,J11,894.634765625,0
0,1.0,0,25633,1.58984375,0.28125,5.0,0.0,14,74,8,1357.79333496094,240.953689575195,0,1,objects,small,1,1,objects,P,big,VS,O,6,J12,21.197265625,1
0,1.0,0,25636,2.3046875,0.134765625,7.0,0.0,6,28,11,874.360168457031,184.812255859375,0,1,objects,big,1,1,objects,P,big,VS,O,6,J12,21.197265625,1
0,1.0,0,25724,0.90625,0.16015625,3.0,1.0,9,56,4,1184.73217773438,260.7431640625,0,1,objects,small,1,1,faces,P,female,VS,F,9,J12,33.794921875,0
0,1.0,0,25726,1.337890625,0.232421875,5.0,0.0,11,61,6,1134.64050292969,759.189025878906,0,1,objects,big,1,1,faces,P,female,VS,F,9,J12,33.794921875,0
0,1.0,0,25732,2.81640625,0.142578125,7.0,0.0,5,26,12,720.197021484375,839.209594726562,0,1,objects,small,1,1,faces,P,female,VS,F,9,J12,33.794921875,0
0,1.0,0,25818,1.80859375,0.30078125,2.0,1.0,9,55,7,1172.3564453125,175.932144165039,0,1,objects,big,1,1,objects,P,big,VS,O,12,J12,46.392578125,1
0,1.0,0,26199,0.984375,0.103515625,3.0,1.0,9,44,6,926.116516113281,877.618835449219,0,1,objects,small,1,1,objects,P,big,VS,O,25,J12,100.982421875,1
0,1.0,0,26200,1.111328125,0.224609375,4.0,1.0,5,17,7,692.005249023438,876.259704589844,0,1,objects,big,1,1,objects,P,big,VS,O,25,J12,100.982421875,1
0,1.0,0,26202,1.537109375,0.216796875,5.0,0.0,6,25,9,737.718139648438,782.329162597656,0,1,objects,big,1,1,objects,P,big,VS,O,25,J12,100.982421875,1
0,1.0,0,26205,2.169921875,0.306640625,7.0,0.0,10,46,12,1072.25891113281,146.110717773438,0,1,objects,small,1,1,objects,P,big,VS,O,25,J12,100.982421875,1
0,1.0,0,26513,1.4140625,0.203125,3.0,1.0,6,29,8,903.153930664062,212.242263793945,0,1,objects,small,1,1,faces,P,female,VS,F,35,J12,142.974609375,0
0,1.0,0,27414,0.365234375,0.205078125,2.0,1.0,2,12,2,650.2236328125,386.201324462891,0,1,objects,big,1,1,faces,P,female,VS,I,70,J12,289.947265625,0
0,1.0,0,27482,3.0,0.162109375,6.0,0.0,6,34,12,870.193969726562,699.460266113281,0,1,objects,small,1,1,faces,P,female,VS,I,72,J12,298.345703125,0
0,1.0,0,28277,1.650390625,0.22265625,2.0,1.0,11,59,6,1112.34936523438,542.352233886719,0,1,objects,small,1,1,faces,P,male,VS,I,97,J12,403.326171875,0
1,1.0,0,28597,0.63671875,0.1953125,2.0,1.0,7,38,3,978.617492675781,224.432693481445,0,1,objects,small,1,1,faces,P,male,VS,F,109,J12,453.716796875,0
0,1.0,0,28603,3.265625,0.2734375,7.0,0.0,4,25,9,748.051330566406,758.127258300781,0,1,objects,big,1,1,faces,P,male,VS,F,109,J12,453.716796875,0
0,1.0,0,28746,0.57421875,0.462890625,2.0,1.0,12,62,3,1132.82531738281,840.092651367188,0,1,objects,small,1,1,objects,P,big,VS,O,114,J12,474.712890625,1
1,1.0,0,28750,2.0,0.244140625,5.0,0.0,8,46,7,1081.8701171875,133.689086914062,0,1,objects,small,1,1,objects,P,big,VS,O,114,J12,474.712890625,1
0,1.0,0,29036,0.490234375,0.220703125,2.0,1.0,3,13,2,637.106384277344,462.757629394531,0,1,objects,small,1,1,faces,P,female,VS,I,124,J12,516.705078125,0
0,1.0,0,29409,0.4765625,0.177734375,2.0,1.0,2,4,3,594.439758300781,398.321075439453,0,1,objects,small,1,1,objects,P,small,VS,O,137,J12,571.294921875,1
0,1.0,0,29438,1.494140625,0.26171875,3.0,1.0,5,14,7,639.25390625,555.396850585938,0,1,objects,small,1,1,objects,P,big,VS,O,138,J12,575.494140625,1
0,1.0,0,29440,2.0390625,0.2421875,4.0,1.0,9,54,9,1044.03344726562,977.459594726562,0,1,objects,big,1,1,objects,P,big,VS,O,138,J12,575.494140625,1
0,1.0,0,29995,0.857421875,0.12890625,3.0,1.0,9,30,5,870.257202148438,364.985107421875,0,1,objects,big,1,1,objects,P,small,VS,O,154,J12,642.681640625,1
0,1.0,0,30560,0.515625,0.142578125,2.0,1.0,10,48,2,1033.97668457031,329.236358642578,0,1,objects,big,1,1,objects,P,big,VS,O,175,J12,730.865234375,1
0,1.0,0,30590,1.083984375,0.181640625,4.0,1.0,6,32,4,899.38232421875,508.784301757812,0,1,objects,small,1,1,faces,P,male,VS,I,176,J12,735.064453125,0
0,1.0,0,30859,1.490234375,0.228515625,3.0,1.0,3,10,7,672.77294921875,182.254730224609,0,1,objects,small,1,1,objects,P,big,VS,O,186,J12,777.056640625,1
0,1.0,0,31001,1.130859375,0.208984375,5.0,0.0,8,32,6,848.756103515625,558.409423828125,0,1,objects,small,1,1,faces,P,male,VS,F,192,J12,802.251953125,0
0,1.0,0,31003,1.572265625,0.298828125,7.0,0.0,15,77,8,1371.30859375,529.645751953125,0,1,objects,big,1,1,faces,P,male,VS,F,192,J12,802.251953125,0
0,1.0,0,31434,1.32421875,0.150390625,4.0,1.0,12,67,6,1265.33337402344,397.308746337891,0,1,objects,big,1,1,faces,P,male,VS,F,208,J12,869.439453125,0
0,1.0,0,31627,0.662109375,0.22265625,2.0,1.0,9,43,3,911.299255371094,732.767761230469,0,1,objects,small,1,1,objects,P,small,VS,O,215,J12,898.833984375,1
0,1.0,0,22747,0.638671875,0.173828125,2.0,1.0,10,56,3,1156.72351074219,194.510269165039,0,1,objects,small,1,1,objects,P,small,VS,O,4,E08,12.798828125,1
0,1.0,0,22748,0.890625,0.134765625,3.0,1.0,2,11,4,654.541809082031,221.342391967773,0,1,objects,small,1,1,objects,P,small,VS,O,4,E08,12.798828125,1
1,1.0,0,22750,1.326171875,0.14453125,4.0,1.0,6,44,6,941.275573730469,873.328796386719,0,1,objects,big,1,1,objects,P,small,VS,O,4,E08,12.798828125,1
0,1.0,0,22938,0.900390625,0.1875,2.0,1.0,7,36,5,869.590026855469,929.066650390625,0,1,objects,small,1,1,faces,P,female,VS,I,11,E08,42.193359375,0
0,1.0,0,23175,1.060546875,0.16796875,3.0,1.0,14,77,6,1390.9169921875,519.467590332031,0,1,objects,big,1,1,objects,P,small,VS,O,21,E08,84.185546875,1
0,1.0,0,23179,1.87109375,0.15625,5.0,0.0,8,36,10,868.633911132812,942.350891113281,0,1,objects,big,1,1,objects,P,small,VS,O,21,E08,84.185546875,1
0,1.0,0,23220,0.974609375,0.134765625,3.0,1.0,6,27,6,744.250915527344,904.956604003906,0,1,objects,small,1,1,faces,P,female,VS,I,23,E08,92.583984375,0
0,1.0,0,23423,1.328125,0.220703125,3.0,1.0,11,65,6,1281.78100585938,257.240631103516,0,1,objects,small,1,1,objects,P,small,VS,O,32,E08,130.376953125,1
0,1.0,0,23424,1.615234375,0.1484375,4.0,1.0,7,46,7,1079.58190917969,123.907699584961,0,1,objects,big,1,1,objects,P,small,VS,O,32,E08,130.376953125,1
0,1.0,0,23640,0.8515625,0.16015625,2.0,1.0,1,1,4,600.175170898438,96.5902862548828,0,1,objects,big,1,1,faces,P,female,VS,I,42,E08,172.369140625,0
0,1.0,0,23766,1.13671875,0.140625,2.0,1.0,3,15,5,691.815063476562,651.079284667969,0,1,objects,small,1,1,faces,P,male,VS,I,48,E08,197.564453125,0
1,1.0,0,23922,0.8046875,0.17578125,2.0,1.0,7,42,4,923.840698242188,646.649108886719,0,1,objects,small,1,1,objects,P,big,VS,O,56,E08,231.158203125,1
0,1.0,0,23923,1.046875,0.177734375,3.0,1.0,2,15,5,613.211853027344,665.585388183594,0,1,objects,small,1,1,objects,P,big,VS,O,56,E08,231.158203125,1
0,1.0,1,23929,2.2421875,0.22265625,7.0,0.0,8,52,11,1064.9482421875,733.073059082031,0,1,objects,small,1,1,objects,P,big,VS,O,56,E08,231.158203125,1
0,1.0,0,23930,2.505859375,0.18359375,8.0,0.0,11,60,12,1167.88171386719,628.31103515625,0,1,objects,big,1,1,objects,P,big,VS,O,56,E08,231.158203125,1
1,1.0,0,24165,1.16015625,0.125,2.0,1.0,10,52,6,1053.24914550781,740.112915039062,0,1,objects,big,1,1,objects,P,small,VS,O,65,E08,268.951171875,1
0,1.0,1,24227,0.6875,0.1171875,2.0,1.0,7,27,5,716.3828125,924.727172851562,0,1,objects,small,1,1,faces,P,female,VS,I,68,E08,281.548828125,0
0,1.0,0,24462,1.5234375,0.166015625,3.0,1.0,14,70,7,1271.60473632812,732.10791015625,0,1,objects,big,1,1,objects,P,small,VS,O,73,E08,302.544921875,1
0,1.0,0,24657,0.677734375,0.134765625,2.0,1.0,7,46,4,1074.55737304688,158.977294921875,0,1,objects,small,1,1,faces,P,female,VS,F,82,E08,340.337890625,0
0,1.0,0,24663,2.064453125,0.138671875,6.0,0.0,2,9,10,542.561584472656,913.996398925781,0,1,objects,big,1,1,faces,P,female,VS,F,82,E08,340.337890625,0
0,1.0,0,24759,1.658203125,0.146484375,4.0,1.0,15,79,8,1359.1728515625,759.397033691406,0,1,objects,small,1,1,faces,P,female,VS,I,86,E08,357.134765625,0
0,1.0,0,24831,1.525390625,0.279296875,3.0,1.0,13,67,8,1274.23669433594,470.961639404297,0,1,objects,small,1,1,objects,P,big,VS,O,89,E08,369.732421875,1
0,1.0,0,24832,1.869140625,0.220703125,4.0,1.0,15,78,9,1396.95080566406,659.982971191406,0,1,objects,small,1,1,objects,P,big,VS,O,89,E08,369.732421875,1
0,1.0,0,24834,2.4375,0.1484375,6.0,0.0,7,45,11,939.097229003906,916.369567871094,0,1,objects,big,1,1,objects,P,big,VS,O,89,E08,369.732421875,1
0,1.0,0,25077,0.78125,0.14453125,2.0,1.0,2,6,4,523.456481933594,657.033142089844,0,1,objects,big,1,1,objects,P,big,VS,O,103,E08,428.521484375,1
0,1.0,0,25078,1.033203125,0.158203125,3.0,1.0,13,75,5,1343.67822265625,369.417419433594,0,1,objects,big,1,1,objects,P,big,VS,O,103,E08,428.521484375,1
0,1.0,0,25079,1.34765625,0.259765625,4.0,1.0,12,74,6,1388.94506835938,252.676071166992,0,1,objects,small,1,1,objects,P,big,VS,O,103,E08,428.521484375,1
0,1.0,0,26389,1.10546875,0.15625,2.0,1.0,4,23,7,774.6962890625,534.871398925781,0,1,objects,small,1,1,objects,P,big,VS,O,159,E08,663.677734375,1
0,1.0,0,26555,0.822265625,0.166015625,3.0,1.0,1,3,4,555.660827636719,345.604919433594,0,1,objects,big,1,1,faces,P,male,VS,I,167,E08,697.271484375,0
0,1.0,0,26637,0.919921875,0.173828125,4.0,1.0,12,54,5,1087.34619140625,895.414855957031,0,1,objects,big,1,1,faces,P,female,VS,F,171,E08,714.068359375,0
0,1.0,0,26967,1.49609375,0.123046875,4.0,1.0,8,34,7,828.590881347656,783.2568359375,0,1,objects,small,1,1,faces,P,female,VS,F,186,E08,777.056640625,0
0,1.0,0,27024,1.30859375,0.111328125,2.0,1.0,15,80,7,1314.56677246094,865.599182128906,0,1,objects,big,1,1,objects,P,big,VS,O,189,E08,789.654296875,1
0,1.0,0,27214,1.6640625,0.17578125,5.0,0.0,12,45,8,961.746337890625,948.958068847656,0,1,objects,big,1,1,faces,P,male,VS,I,199,E08,831.646484375,0
0,1.0,0,27518,1.251953125,0.169921875,4.0,1.0,2,14,6,671.947570800781,499.884155273438,0,1,objects,big,1,1,faces,P,male,VS,I,215,E08,898.833984375,0
0,1.0,0,24457,1.53515625,0.30078125,3.0,1.0,1,2,8,560.668334960938,256.979278564453,0,1,objects,small,1,1,faces,P,female,VS,I,13,E09,50.591796875,0
0,1.0,0,24597,1.884765625,0.12890625,4.0,1.0,7,45,9,929.187561035156,984.7041015625,0,1,objects,big,1,1,faces,P,female,VS,F,19,E09,75.787109375,0
0,1.0,0,24604,3.359375,0.11328125,8.0,0.0,9,47,16,1085.89086914062,214.461685180664,0,1,objects,big,1,1,faces,P,female,VS,F,19,E09,75.787109375,0
0,1.0,0,25726,2.619140625,0.134765625,3.0,1.0,5,28,18,890.431213378906,159.458038330078,0,1,objects,big,1,1,faces,P,male,VS,F,64,E09,264.751953125,0
0,1.0,0,25747,0.869140625,0.46875,3.0,1.0,12,65,3,1270.54370117188,259.665893554688,0,1,objects,big,1,1,objects,P,small,VS,O,65,E09,268.951171875,1
0,1.0,0,25752,2.552734375,0.2421875,5.0,0.0,6,27,8,807.214538574219,900.035949707031,0,1,objects,small,1,1,objects,P,small,VS,O,65,E09,268.951171875,1
0,1.0,0,26779,1.296875,0.150390625,3.0,1.0,4,20,7,808.246215820312,264.009582519531,0,1,objects,small,1,1,faces,P,female,VS,I,85,E09,352.935546875,0
0,1.0,0,26973,1.900390625,0.18359375,3.0,1.0,6,34,10,898.544616699219,770.1337890625,0,1,objects,big,1,1,faces,P,male,VS,I,93,E09,386.529296875,0
0,1.0,0,26974,2.142578125,0.181640625,4.0,1.0,3,14,11,699.147521972656,545.303588867188,0,1,objects,big,1,1,faces,P,male,VS,I,93,E09,386.529296875,0
0,1.0,0,27541,1.068359375,0.228515625,3.0,1.0,2,7,4,599.71435546875,751.853149414062,0,1,objects,small,1,1,faces,P,male,VS,I,118,E09,491.509765625,0
0,1.0,0,27542,1.34765625,0.115234375,4.0,1.0,3,14,5,670.249938964844,554.578857421875,0,1,objects,small,1,1,faces,P,male,VS,I,118,E09,491.509765625,0
1,1.0,0,27544,1.73828125,0.140625,6.0,0.0,9,43,7,1009.8173828125,729.91357421875,0,1,objects,big,1,1,faces,P,male,VS,I,118,E09,491.509765625,0
0,1.0,0,27756,0.33984375,0.119140625,2.0,1.0,7,33,2,877.832763671875,595.753967285156,0,1,objects,big,1,1,faces,P,female,VS,F,128,E09,533.501953125,0
0,1.0,0,27807,1.177734375,0.21484375,2.0,1.0,15,74,6,1379.61486816406,255.63053894043,0,1,objects,small,1,1,objects,P,small,VS,O,130,E09,541.900390625,1
0,1.0,0,27953,1.009765625,0.138671875,5.0,0.0,11,68,5,1271.06652832031,552.21728515625,0,1,objects,small,1,1,objects,P,small,VS,O,136,E09,567.095703125,1
0,1.0,0,28129,2.857421875,0.130859375,7.0,0.0,11,57,11,1204.82434082031,314.607177734375,0,1,objects,big,1,1,faces,P,female,VS,I,143,E09,596.490234375,0
0,1.0,0,28406,1.828125,0.15234375,5.0,0.0,11,71,9,1246.70983886719,850.761291503906,0,1,objects,big,1,1,faces,P,male,VS,F,148,E09,617.486328125,0
0,1.0,0,28427,1.447265625,0.189453125,4.0,1.0,9,42,6,940.39013671875,674.292541503906,0,1,objects,small,1,1,objects,P,small,VS,O,149,E09,621.685546875,1
0,1.0,0,28448,1.421875,0.19140625,2.0,1.0,10,48,7,1050.96606445312,344.081756591797,0,1,objects,small,1,1,objects,P,big,VS,O,150,E09,625.884765625,1
0,1.0,0,28449,1.658203125,0.263671875,3.0,1.0,7,29,8,874.54833984375,259.920867919922,0,1,objects,small,1,1,objects,P,big,VS,O,150,E09,625.884765625,1
0,1.0,0,29003,1.642578125,0.2421875,5.0,0.0,5,14,8,669.619934082031,541.388000488281,0,1,objects,big,1,1,faces,P,female,VS,F,173,E09,722.466796875,0
0,1.0,0,29079,0.53125,0.1484375,2.0,1.0,13,64,3,1290.89526367188,156.096725463867,0,1,objects,big,1,1,objects,P,small,VS,O,176,E09,735.064453125,1
0,1.0,0,29319,1.396484375,0.255859375,3.0,1.0,4,18,6,665.448303222656,972.947692871094,0,1,objects,big,1,1,faces,P,female,VS,F,186,E09,777.056640625,0
0,1.0,1,29630,1.173828125,0.158203125,2.0,1.0,3,12,5,676.697937011719,318.106781005859,0,1,objects,big,1,1,objects,P,small,VS,O,204,E09,852.642578125,1
0,1.0,0,19814,0.884765625,0.302734375,2.0,1.0,8,47,5,1104.60803222656,278.863098144531,0,1,objects,big,1,1,objects,P,small,VS,O,4,E10,12.798828125,1
1,1.0,1,19887,0.60546875,0.275390625,3.0,1.0,12,71,3,1298.1865234375,824.974243164062,0,1,objects,small,1,1,objects,P,big,VS,O,7,E10,25.396484375,1
0,1.0,0,19892,1.67578125,0.107421875,7.0,0.0,3,4,8,573.594055175781,417.136932373047,0,1,objects,big,1,1,objects,P,big,VS,O,7,E10,25.396484375,1
0,1.0,0,20359,1.5625,0.150390625,4.0,1.0,14,75,9,1363.38317871094,384.622222900391,0,1,objects,big,1,1,faces,P,male,VS,I,29,E10,117.779296875,0
1,1.0,1,20919,1.75,0.13671875,4.0,1.0,7,28,11,833.200012207031,150.341720581055,0,1,objects,big,1,1,objects,P,small,VS,O,50,E10,205.962890625,1
0,1.0,0,21100,0.3984375,0.115234375,2.0,1.0,6,25,2,714.869384765625,739.789001464844,0,1,objects,big,1,1,objects,P,small,VS,O,55,E10,226.958984375,1
0,1.0,0,21138,1.189453125,0.26953125,2.0,1.0,7,42,6,1007.0498046875,654.399108886719,0,1,objects,small,1,1,objects,P,big,VS,O,56,E10,231.158203125,1
0,1.0,0,21764,0.41796875,0.1953125,2.0,1.0,11,51,2,1094.39453125,660.072021484375,0,1,objects,small,1,1,objects,P,big,VS,O,107,E10,445.318359375,1
0,1.0,0,21766,0.947265625,0.14453125,3.0,1.0,10,47,4,1044.56359863281,287.56689453125,0,1,objects,big,1,1,objects,P,big,VS,O,107,E10,445.318359375,1
0,1.0,0,21767,1.15234375,0.251953125,4.0,1.0,13,68,5,1279.13330078125,555.22705078125,0,1,objects,small,1,1,objects,P,big,VS,O,107,E10,445.318359375,1
0,1.0,0,22206,0.8671875,0.1328125,2.0,1.0,2,8,5,608.267028808594,798.009155273438,0,1,objects,big,1,1,faces,P,female,VS,F,125,E10,520.904296875,0
0,1.0,0,22208,1.208984375,0.10546875,4.0,1.0,3,15,7,657.878356933594,613.066833496094,0,1,objects,small,1,1,faces,P,female,VS,F,125,E10,520.904296875,0
0,1.0,0,22615,1.125,0.2109375,2.0,1.0,10,54,5,1085.90197753906,915.220947265625,0,1,objects,small,1,1,faces,P,female,VS,I,143,E10,596.490234375,0
0,1.0,1,22621,2.455078125,0.130859375,6.0,0.0,4,11,11,655.811706542969,279.866271972656,0,1,objects,small,1,1,faces,P,female,VS,I,143,E10,596.490234375,0
0,1.0,0,22835,0.587890625,0.130859375,3.0,1.0,9,42,4,939.159423828125,658.728698730469,0,1,objects,small,1,1,objects,P,small,VS,O,149,E10,621.685546875,1
0,1.0,0,22850,0.759765625,0.2421875,3.0,1.0,10,48,4,1052.89794921875,330.203918457031,0,1,objects,small,1,1,objects,P,big,VS,O,150,E10,625.884765625,1
0,1.0,0,22852,1.232421875,0.166015625,5.0,0.0,7,29,6,901.2685546875,240.354797363281,0,1,objects,small,1,1,objects,P,big,VS,O,150,E10,625.884765625,1
0,1.0,0,22876,1.064453125,0.224609375,3.0,1.0,13,58,5,1184.00720214844,431.635650634766,0,1,objects,big,1,1,faces,P,female,VS,I,151,E10,630.083984375,0
0,1.0,0,23307,1.1875,0.12109375,3.0,1.0,6,16,6,614.314880371094,700.288940429688,0,1,objects,small,1,1,faces,P,female,VS,F,173,E10,722.466796875,0
0,1.0,0,23425,0.875,0.1171875,2.0,1.0,6,35,5,879.615539550781,857.879150390625,0,1,objects,small,1,1,objects,P,small,VS,O,178,E10,743.462890625,1
0,1.0,0,23490,1.103515625,0.130859375,4.0,1.0,6,20,6,765.239868164062,277.379760742188,0,1,objects,small,1,1,faces,P,female,VS,I,181,E10,756.060546875,0
0,1.0,0,23644,0.677734375,0.26171875,3.0,1.0,3,21,3,799.3369140625,364.499542236328,0,1,objects,small,1,1,objects,P,big,VS,O,189,E10,789.654296875,1
1,1.0,0,23650,2.58984375,0.16796875,7.0,0.0,15,80,9,1344.65942382812,831.060241699219,0,1,objects,big,1,1,objects,P,big,VS,O,189,E10,789.654296875,1
0,1.0,0,23722,1.54296875,0.12890625,6.0,0.0,4,34,7,893.146240234375,698.79638671875,0,1,objects,big,1,1,faces,P,female,VS,F,193,E10,806.451171875,0
0,1.0,0,23727,2.470703125,0.220703125,9.0,0.0,12,58,12,1146.44873046875,416.287750244141,0,1,objects,big,1,1,faces,P,female,VS,F,193,E10,806.451171875,0
0,1.0,0,23859,2.328125,0.125,9.0,0.0,14,65,11,1233.48474121094,255.818603515625,0,1,objects,big,1,1,faces,P,male,VS,I,199,E10,831.646484375,0
0,1.0,0,23860,2.515625,0.16015625,10.0,0.0,12,45,12,960.729125976562,930.722839355469,0,1,objects,big,1,1,faces,P,male,VS,I,199,E10,831.646484375,0
0,1.0,0,23943,0.884765625,0.466796875,2.0,1.0,7,26,5,762.391845703125,819.456787109375,0,1,objects,small,1,1,objects,P,small,VS,O,204,E10,852.642578125,1
0,1.0,0,23945,1.658203125,0.1953125,3.0,1.0,3,12,7,663.626403808594,352.511199951172,0,1,objects,big,1,1,objects,P,small,VS,O,204,E10,852.642578125,1
0,1.0,0,23948,2.31640625,0.12890625,6.0,0.0,12,72,10,1231.73876953125,917.5732421875,0,1,objects,big,1,1,objects,P,small,VS,O,204,E10,852.642578125,1
0,1.0,0,23964,1.1953125,0.15625,4.0,1.0,15,79,6,1348.93029785156,740.543029785156,0,1,objects,big,1,1,objects,P,big,VS,O,205,E10,856.841796875,1
0,1.0,0,24068,1.341796875,0.1640625,6.0,0.0,9,50,6,1024.38232421875,528.912902832031,0,1,objects,big,1,1,objects,P,big,VS,O,211,E10,882.037109375,1
0,1.0,0,24069,1.583984375,0.193359375,7.0,0.0,11,64,7,1248.28076171875,186.987869262695,0,1,objects,small,1,1,objects,P,big,VS,O,211,E10,882.037109375,1
0,1.0,1,21657,0.421875,0.138671875,2.0,1.0,3,25,2,782.627746582031,758.113220214844,0,1,objects,small,1,1,objects,P,big,VS,O,2,E07,4.400390625,1
0,1.0,1,21662,1.318359375,0.2421875,4.0,1.0,15,80,7,1396.15405273438,851.218811035156,0,1,objects,big,1,1,objects,P,big,VS,O,2,E07,4.400390625,1
1,1.0,0,21707,0.58984375,0.125,3.0,1.0,8,47,3,1067.11376953125,265.628753662109,0,1,objects,big,1,1,objects,P,small,VS,O,4,E07,12.798828125,1
0,1.0,0,21872,1.03515625,0.17578125,4.0,1.0,5,32,6,855.986267089844,573.421081542969,0,1,objects,big,1,1,faces,P,female,VS,I,11,E07,42.193359375,0
0,1.0,0,22095,1.271484375,0.177734375,4.0,1.0,9,40,7,934.120849609375,469.294097900391,0,1,objects,small,1,1,objects,P,small,VS,O,21,E07,84.185546875,1
0,1.0,0,22135,1.28515625,0.18359375,4.0,1.0,13,51,7,1064.05773925781,642.976135253906,0,1,objects,big,1,1,faces,P,female,VS,I,23,E07,92.583984375,0
0,1.0,1,22141,2.60546875,0.26953125,6.0,0.0,12,47,13,1041.54064941406,197.464050292969,0,1,objects,big,1,1,faces,P,female,VS,I,23,E07,92.583984375,0
0,1.0,0,22189,0.947265625,0.138671875,3.0,1.0,3,10,5,637.456420898438,135.90576171875,0,1,objects,big,1,1,faces,P,female,VS,F,25,E07,100.982421875,0
0,1.0,0,22287,1.4375,0.208984375,4.0,1.0,3,22,6,738.042175292969,446.559204101562,0,1,objects,small,1,1,faces,P,male,VS,I,29,E07,117.779296875,0
0,1.0,0,22464,0.783203125,0.17578125,2.0,1.0,9,42,4,959.650939941406,621.927185058594,0,1,objects,big,1,1,objects,P,small,VS,O,36,E07,147.173828125,1
0,1.0,0,22465,0.994140625,0.158203125,3.0,1.0,13,60,5,1196.8623046875,606.307373046875,0,1,objects,big,1,1,objects,P,small,VS,O,36,E07,147.173828125,1
0,1.0,0,22471,2.228515625,0.138671875,7.0,0.0,10,45,11,946.037109375,914.981994628906,0,1,objects,small,1,1,objects,P,small,VS,O,36,E07,147.173828125,1
0,1.0,0,22610,1.2890625,0.125,3.0,1.0,2,3,6,573.003173828125,384.757202148438,0,1,objects,big,1,1,faces,P,female,VS,I,42,E07,172.369140625,0
0,1.0,0,22640,0.744140625,0.28125,3.0,1.0,4,22,4,760.840698242188,462.746215820312,0,1,objects,small,1,1,objects,P,big,VS,O,44,E07,180.767578125,1
0,1.0,0,22763,1.419921875,0.126953125,4.0,1.0,15,76,7,1363.66345214844,418.836242675781,0,1,objects,big,1,1,faces,P,male,VS,F,49,E07,201.763671875,0
0,1.0,0,22780,1.021484375,0.212890625,2.0,1.0,7,28,5,845.130493164062,183.349853515625,0,1,objects,big,1,1,objects,P,small,VS,O,50,E07,205.962890625,1
0,1.0,1,22880,0.517578125,0.189453125,2.0,1.0,13,56,3,1143.71704101562,242.838668823242,0,1,objects,small,1,1,objects,P,small,VS,O,55,E07,226.958984375,1
0,1.0,0,22882,0.919921875,0.322265625,3.0,1.0,12,55,5,1177.22448730469,133.862380981445,0,1,objects,big,1,1,objects,P,small,VS,O,55,E07,226.958984375,1
0,1.0,1,22902,0.484375,0.146484375,2.0,1.0,7,42,4,953.202819824219,631.532653808594,0,1,objects,small,1,1,objects,P,big,VS,O,56,E07,231.158203125,1
0,1.0,0,22905,1.140625,0.13671875,3.0,1.0,11,60,7,1179.79626464844,627.344665527344,0,1,objects,big,1,1,objects,P,big,VS,O,56,E07,231.158203125,1
0,1.0,0,23237,1.486328125,0.16015625,6.0,0.0,4,22,8,733.530029296875,436.403625488281,0,1,objects,small,1,1,faces,P,female,VS,I,68,E07,281.548828125,0
0,1.0,0,23346,2.166015625,0.1484375,8.0,0.0,10,58,9,1144.45031738281,422.551879882812,0,1,objects,small,1,1,faces,P,male,VS,I,72,E07,298.345703125,0
0,1.0,0,23700,0.44921875,0.181640625,2.0,1.0,3,20,3,733.92236328125,246.548095703125,0,1,objects,small,1,1,objects,P,small,VS,O,79,E07,327.740234375,1
0,1.0,0,23706,1.845703125,0.154296875,8.0,0.0,14,66,9,1256.94506835938,338.087677001953,0,1,objects,big,1,1,objects,P,small,VS,O,79,E07,327.740234375,1
0,1.0,0,23709,2.34375,0.140625,10.0,0.0,12,59,12,1150.91979980469,527.604187011719,0,1,objects,big,1,1,objects,P,small,VS,O,79,E07,327.740234375,1
0,1.0,0,23776,2.318359375,0.126953125,8.0,0.0,2,9,11,514.988403320312,968.44091796875,0,1,objects,big,1,1,faces,P,female,VS,F,82,E07,340.337890625,0
0,1.0,0,23777,2.486328125,0.208984375,9.0,0.0,6,45,12,952.461791992188,921.647033691406,0,1,objects,small,1,1,faces,P,female,VS,F,82,E07,340.337890625,0
0,1.0,0,23892,1.51953125,0.138671875,6.0,0.0,4,24,7,745.342346191406,667.552429199219,0,1,objects,small,1,1,faces,P,female,VS,I,86,E07,357.134765625,0
0,1.0,0,23893,1.6953125,0.203125,7.0,0.0,8,43,8,974.758117675781,738.322326660156,0,1,objects,big,1,1,faces,P,female,VS,I,86,E07,357.134765625,0
0,1.0,0,23895,2.150390625,0.1875,9.0,0.0,10,60,10,1209.38000488281,618.887756347656,0,1,objects,big,1,1,faces,P,female,VS,I,86,E07,357.134765625,0
0,1.0,0,24131,0.685546875,0.21875,2.0,1.0,1,10,3,656.551879882812,171.35823059082,0,1,objects,big,1,1,faces,P,female,VS,I,96,E07,399.126953125,0
0,1.0,0,24134,1.4453125,0.212890625,5.0,0.0,13,66,6,1254.82421875,324.015045166016,0,1,objects,big,1,1,faces,P,female,VS,I,96,E07,399.126953125,0
0,1.0,0,24309,1.123046875,0.1953125,3.0,1.0,5,21,5,768.565856933594,347.002105712891,0,1,objects,big,1,1,faces,P,female,VS,I,102,E07,424.322265625,0
0,1.0,0,24314,2.396484375,0.181640625,7.0,0.0,13,61,10,1139.84887695312,760.084228515625,0,1,objects,small,1,1,faces,P,female,VS,I,102,E07,424.322265625,0
0,1.0,0,24337,1.21484375,0.208984375,4.0,1.0,2,6,6,542.288208007812,656.120483398438,0,1,objects,big,1,1,objects,P,big,VS,O,103,E07,428.521484375,1
0,1.0,0,24443,0.53125,0.134765625,2.0,1.0,11,51,3,1028.66174316406,633.715393066406,0,1,objects,small,1,1,objects,P,big,VS,O,107,E07,445.318359375,1
0,1.0,0,24884,0.796875,0.244140625,4.0,1.0,1,1,4,575.429870605469,162.756256103516,0,1,objects,big,1,1,objects,P,small,VS,O,117,E07,487.310546875,1
0,1.0,1,24891,2.462890625,0.203125,9.0,0.0,7,25,11,760.749755859375,772.654174804688,0,1,objects,big,1,1,objects,P,small,VS,O,117,E07,487.310546875,1
0,1.0,0,25819,0.345703125,0.1796875,2.0,1.0,8,56,2,1142.09973144531,275.950073242188,0,1,objects,small,1,1,objects,P,small,VS,O,144,E07,600.689453125,1
0,1.0,0,25827,1.91796875,0.1171875,9.0,0.0,13,69,10,1272.43615722656,617.000427246094,0,1,objects,big,1,1,objects,P,small,VS,O,144,E07,600.689453125,1
0,1.0,1,26077,1.09765625,0.16796875,4.0,1.0,6,42,5,1000.88970947266,626.6279296875,0,1,objects,small,1,1,faces,P,male,VS,F,148,E07,617.486328125,0
0,1.0,0,26143,0.541015625,0.232421875,3.0,1.0,6,38,3,1005.11041259766,201.523452758789,0,1,objects,big,1,1,faces,P,female,VS,I,151,E07,630.083984375,0
0,1.0,0,26279,0.466796875,0.12890625,2.0,1.0,3,19,2,767.950378417969,123.553520202637,0,1,objects,big,1,1,faces,P,female,VS,I,158,E07,659.478515625,0
0,1.0,0,26408,0.978515625,0.181640625,3.0,1.0,10,56,5,1146.98022460938,199.416778564453,0,1,objects,big,1,1,objects,P,small,VS,O,164,E07,684.673828125,1
0,1.0,0,26697,0.640625,0.265625,3.0,1.0,1,13,3,666.50634765625,390.846557617188,0,1,objects,big,1,1,objects,P,small,VS,O,178,E07,743.462890625,1
0,1.0,0,26738,0.779296875,0.2890625,3.0,1.0,11,48,3,1042.34643554688,324.311920166016,0,1,objects,small,1,1,faces,P,female,VS,I,180,E07,751.861328125,0
0,1.0,0,26763,1.263671875,0.15625,4.0,1.0,3,16,6,655.107299804688,746.725219726562,0,1,objects,small,1,1,faces,P,female,VS,I,181,E07,756.060546875,0
1,1.0,0,26880,0.640625,0.134765625,2.0,1.0,7,29,3,863.486511230469,226.036987304688,0,1,objects,big,1,1,faces,P,female,VS,F,186,E07,777.056640625,0
0,1.0,0,26959,0.84765625,0.244140625,3.0,1.0,3,21,4,718.337585449219,321.570617675781,0,1,objects,small,1,1,objects,P,big,VS,O,189,E07,789.654296875,1
0,1.0,0,26961,1.345703125,0.173828125,5.0,0.0,6,33,6,840.818969726562,661.553039550781,0,1,objects,small,1,1,objects,P,big,VS,O,189,E07,789.654296875,1
0,1.0,0,26963,1.88671875,0.2265625,7.0,0.0,10,53,8,1066.22155761719,854.682678222656,0,1,objects,small,1,1,objects,P,big,VS,O,189,E07,789.654296875,1
0,1.0,0,27004,1.818359375,0.1953125,4.0,1.0,1,3,9,538.593994140625,326.414428710938,0,1,objects,big,1,1,faces,P,male,VS,I,191,E07,798.052734375,0
0,1.0,1,27264,0.595703125,0.169921875,2.0,1.0,10,48,4,1019.82849121094,307.3515625,0,1,objects,small,1,1,faces,P,female,VS,I,202,E07,844.244140625,0
0,1.0,1,27313,0.517578125,0.271484375,2.0,1.0,7,26,2,738.694458007812,812.837341308594,0,1,objects,small,1,1,objects,P,small,VS,O,204,E07,852.642578125,1
0,1.0,0,27317,1.591796875,0.123046875,3.0,1.0,3,12,6,643.457641601562,313.036590576172,0,1,objects,big,1,1,objects,P,small,VS,O,204,E07,852.642578125,1
0,1.0,0,27335,0.890625,0.150390625,3.0,1.0,8,31,4,854.569885253906,412.862457275391,0,1,objects,big,1,1,objects,P,big,VS,O,205,E07,856.841796875,1
0,1.0,0,27337,2.025390625,0.240234375,5.0,0.0,14,78,6,1359.80456542969,667.675354003906,0,1,objects,small,1,1,objects,P,big,VS,O,205,E07,856.841796875,1
0,1.0,0,27338,2.294921875,0.28515625,6.0,0.0,15,79,7,1384.44555664062,735.667785644531,0,1,objects,big,1,1,objects,P,big,VS,O,205,E07,856.841796875,1
0,1.0,0,27340,2.92578125,0.181640625,8.0,0.0,13,72,9,1224.80224609375,935.241943359375,0,1,objects,small,1,1,objects,P,big,VS,O,205,E07,856.841796875,1
0,1.0,0,27380,0.900390625,0.19921875,3.0,1.0,4,13,4,645.925598144531,403.947387695312,0,1,objects,small,1,1,faces,P,female,VS,F,207,E07,865.240234375,0
0,1.0,0,27382,1.435546875,0.14453125,5.0,0.0,5,14,6,657.266052246094,514.294799804688,0,1,objects,small,1,1,faces,P,female,VS,F,207,E07,865.240234375,0
0,1.0,0,27557,1.513671875,0.173828125,4.0,1.0,10,66,6,1238.42517089844,369.119903564453,0,1,objects,big,1,1,faces,P,male,VS,I,215,E07,898.833984375,0
0,1.0,0,27561,2.3984375,0.25,7.0,0.0,14,77,10,1368.48352050781,526.623168945312,0,1,objects,small,1,1,faces,P,male,VS,I,215,E07,898.833984375,0
0,1.0,0,21105,0.55859375,0.166015625,2.0,1.0,10,60,2,1116.06225585938,679.699157714844,0,1,objects,small,1,1,objects,P,big,VS,O,7,E11,25.396484375,1
0,1.0,0,21109,1.283203125,0.794921875,3.0,1.0,11,70,6,1257.47912597656,769.027282714844,0,1,objects,big,1,1,objects,P,big,VS,O,7,E11,25.396484375,1
0,1.0,1,21111,2.33984375,0.205078125,5.0,0.0,3,4,8,588.168151855469,461.781433105469,0,1,objects,big,1,1,objects,P,big,VS,O,7,E11,25.396484375,1
0,1.0,0,21368,2.265625,0.19921875,7.0,0.0,9,47,11,1088.17236328125,194.62109375,0,1,objects,big,1,1,faces,P,female,VS,F,19,E11,75.787109375,0
0,1.0,0,21408,2.22265625,0.181640625,3.0,1.0,14,77,4,1320.0009765625,509.190887451172,0,1,objects,big,1,1,objects,P,small,VS,O,21,E11,84.185546875,1
0,1.0,0,22397,0.57421875,0.244140625,3.0,1.0,4,20,3,747.764770507812,286.271057128906,0,1,objects,small,1,1,faces,P,female,VS,I,85,E11,352.935546875,0
0,1.0,0,22411,1.76171875,0.146484375,4.0,1.0,15,79,8,1390.625,733.891967773438,0,1,objects,small,1,1,faces,P,female,VS,I,86,E11,357.134765625,0
0,1.0,0,22455,0.34765625,0.15234375,2.0,1.0,7,49,2,1046.40197753906,417.639862060547,0,1,objects,big,1,1,faces,P,female,VS,F,90,E11,373.931640625,0
0,1.0,0,22584,1.4765625,0.15625,4.0,1.0,3,27,8,785.076232910156,922.80615234375,0,1,objects,small,1,1,faces,P,female,VS,I,96,E11,399.126953125,0
0,1.0,0,22650,0.798828125,0.154296875,2.0,1.0,9,50,5,1053.08911132812,554.915405273438,0,1,objects,big,1,1,faces,P,male,VS,F,100,E11,415.923828125,0
0,1.0,0,22651,1.00390625,0.166015625,3.0,1.0,5,25,6,754.466003417969,740.201904296875,0,1,objects,small,1,1,faces,P,male,VS,F,100,E11,415.923828125,0
0,1.0,0,22966,1.404296875,0.1875,2.0,1.0,3,14,5,669.883239746094,569.062072753906,0,1,objects,small,1,1,faces,P,male,VS,I,118,E11,491.509765625,0
1,1.0,0,23135,0.763671875,0.125,2.0,1.0,7,33,4,866.242370605469,617.155395507812,0,1,objects,big,1,1,faces,P,female,VS,F,128,E11,533.501953125,0
0,1.0,0,23928,1.541015625,0.181640625,4.0,1.0,8,34,5,838.684326171875,763.293579101562,0,1,objects,small,1,1,faces,P,female,VS,F,186,E11,777.056640625,0
0,1.0,0,23982,0.966796875,0.17578125,4.0,1.0,15,80,5,1348.14807128906,861.12353515625,0,1,objects,big,1,1,objects,P,big,VS,O,189,E11,789.654296875,1
0,1.0,0,23986,1.75390625,0.115234375,6.0,0.0,10,53,9,1045.83178710938,834.757141113281,0,1,objects,small,1,1,objects,P,big,VS,O,189,E11,789.654296875,1
0,1.0,0,24194,0.23046875,0.2265625,2.0,1.0,7,22,2,807.497863769531,434.715209960938,0,1,objects,small,1,1,faces,P,male,VS,I,199,E11,831.646484375,0
0,1.0,0,24272,1.388671875,0.12109375,4.0,1.0,1,5,6,564.306518554688,584.326721191406,0,1,objects,small,1,1,faces,P,female,VS,F,203,E11,848.443359375,0
0,1.0,0,24339,1.50390625,0.154296875,5.0,0.0,11,72,8,1283.78771972656,942.054382324219,0,1,objects,big,1,1,faces,P,female,VS,F,207,E11,865.240234375,0
