refix,pretarget,multifix,urevent,tonset,dur_added,rank,first_rank,stposrel,stposabs,n,x,y,istarget,isdistractor,distractor_cat,ditractor_atr,trial_targetseen,trial_correct,trial_cat,trial_resp,trial_atr,trial_type,trial_cattype,trial_number,trial_subject,trial_bgn_latency
0,1,0,21630,0.33203125,0.14453125,1,1,8,29,2,853.353820800781,259.903503417969,0,1,objects,big,0,0,faces,A,female,VS,I,1,E07,0.201171875
1,1,0,21631,0.51171875,0.24609375,2,1,10,37,3,956.051513671875,172.595260620117,0,1,faces,female,0,0,faces,A,female,VS,I,1,E07,0.201171875
0,1,0,21632,0.78515625,0.220703125,3,1,12,46,4,1041.80920410156,180.413421630859,0,1,faces,female,0,0,faces,A,female,VS,I,1,E07,0.201171875
2,1,0,21633,1.03125,0.42578125,4,1,10,37,5,946.00830078125,183.689590454102,0,1,faces,female,0,0,faces,A,female,VS,I,1,E07,0.201171875
0,1,1,21634,1.515625,0.173828125,5,0,13,52,6,1082.36096191406,782.01220703125,0,1,faces,male,0,0,faces,A,female,VS,I,1,E07,0.201171875
0,1,0,21636,1.904296875,0.265625,6,0,15,80,8,1385.404296875,854.284545898438,0,1,objects,big,0,0,faces,A,female,VS,I,1,E07,0.201171875
0,1,1,21637,2.208984375,0.12890625,7,0,11,45,9,1008.99987792969,959.555236816406,0,1,faces,male,0,0,faces,A,female,VS,I,1,E07,0.201171875
0,1,0,21640,2.81640625,0.103515625,8,0,9,33,12,843.006958007812,666.094909667969,0,1,faces,female,0,0,faces,A,female,VS,I,1,E07,0.201171875
0,1,0,21641,2.951171875,0.265625,9,0,6,15,13,634.8486328125,674.445373535156,0,1,faces,male,0,0,faces,A,female,VS,I,1,E07,0.201171875
0,1,0,21643,3.51953125,0.30078125,10,0,5,14,15,630.108337402344,547.802734375,0,1,faces,female,0,0,faces,A,female,VS,I,1,E07,0.201171875
0,1,0,21656,0.205078125,0.185546875,1,1,6,42,1,932.055786132812,632.563598632812,0,1,faces,female,1,1,objects,P,big,VS,O,2,E07,4.400390625
0,1,1,21657,0.421875,0.138671875,2,1,3,25,2,782.627746582031,758.113220214844,0,1,objects,small,1,1,objects,P,big,VS,O,2,E07,4.400390625
0,1,0,21661,1.12890625,0.146484375,3,1,10,53,6,1075.08679199219,861.183410644531,0,1,faces,female,1,1,objects,P,big,VS,O,2,E07,4.400390625
0,1,1,21662,1.318359375,0.2421875,4,1,15,80,7,1396.15405273438,851.218811035156,0,1,objects,big,1,1,objects,P,big,VS,O,2,E07,4.400390625
0,0,1,21666,2.443359375,0.423828125,5,0,11,58,11,1146.02551269531,467.634979248047,1,0,NaN,NaN,1,1,objects,P,big,VS,O,2,E07,4.400390625
1,1,1,21677,0.263671875,0.4296875,1,1,8,34,1,840.88232421875,761.680725097656,0,1,faces,female,0,1,faces,A,female,EX,F,3,E07,8.599609375
0,1,0,21680,1.037109375,0.291015625,2,1,6,27,4,735.497253417969,977.446838378906,0,1,faces,female,0,1,faces,A,female,EX,F,3,E07,8.599609375
2,1,0,21681,1.3671875,0.232421875,3,1,8,34,5,848.306396484375,772.354553222656,0,1,faces,female,0,1,faces,A,female,EX,F,3,E07,8.599609375
0,1,0,21682,1.642578125,0.291015625,4,1,11,63,6,1160.69665527344,964.508911132812,0,1,faces,female,0,1,faces,A,female,EX,F,3,E07,8.599609375
0,1,0,21684,2.15625,0.234375,5,0,12,69,8,1262.78784179688,675.547424316406,0,1,objects,small,0,1,faces,A,female,EX,F,3,E07,8.599609375
0,1,0,21685,2.41796875,0.251953125,6,0,15,78,9,1383.91162109375,666.346984863281,0,1,faces,male,0,1,faces,A,female,EX,F,3,E07,8.599609375
0,1,1,21686,2.708984375,0.302734375,7,0,14,76,10,1348.71325683594,477.647186279297,0,1,objects,big,0,1,faces,A,female,EX,F,3,E07,8.599609375
0,1,1,21688,3.314453125,0.119140625,8,0,13,74,12,1371.37744140625,283.725372314453,0,1,faces,female,0,1,faces,A,female,EX,F,3,E07,8.599609375
0,1,0,21690,3.865234375,0.1875,9,0,10,56,14,1161.77087402344,276.496185302734,0,1,faces,male,0,1,faces,A,female,EX,F,3,E07,8.599609375
0,1,0,21705,0.2578125,0.130859375,1,1,12,58,1,1148.84838867188,480.878204345703,0,1,faces,female,1,1,objects,P,small,VS,O,4,E07,12.798828125
1,1,0,21706,0.423828125,0.13671875,2,1,5,39,2,1005.72210693359,345.852874755859,1,0,NaN,NaN,1,1,objects,P,small,VS,O,4,E07,12.798828125
1,1,0,21707,0.58984375,0.125,3,1,8,47,3,1067.11376953125,265.628753662109,0,1,objects,big,1,1,objects,P,small,VS,O,4,E07,12.798828125
2,0,1,21708,0.74609375,0.61328125,4,1,5,39,4,939.222045898438,364.798675537109,1,0,NaN,NaN,1,1,objects,P,small,VS,O,4,E07,12.798828125
0,0,0,21711,2.9609375,0.24609375,5,0,4,29,7,847.162475585938,287.786346435547,0,1,faces,male,1,1,objects,P,small,VS,O,4,E07,12.798828125
2,0,0,21712,3.2421875,0.3125,6,0,8,47,8,1066.21142578125,277.936706542969,0,1,objects,big,1,1,objects,P,small,VS,O,4,E07,12.798828125
0,1,0,21723,0.251953125,0.224609375,1,1,4,22,1,737.322631835938,480.635528564453,0,1,faces,male,0,1,faces,A,male,EX,F,5,E07,16.998046875
0,1,0,21725,0.646484375,0.2734375,2,1,3,19,3,754.38427734375,154.421249389648,0,1,objects,big,0,1,faces,A,male,EX,F,5,E07,16.998046875
0,1,0,21726,0.951171875,0.490234375,3,1,7,29,4,854.373352050781,288.210296630859,0,1,faces,male,0,1,faces,A,male,EX,F,5,E07,16.998046875
0,1,0,21727,1.47265625,0.2734375,4,1,10,40,5,956.6494140625,478.009033203125,0,1,faces,male,0,1,faces,A,male,EX,F,5,E07,16.998046875
0,1,1,21728,1.78515625,0.125,5,0,11,59,6,1201.84509277344,557.111633300781,0,1,faces,female,0,1,faces,A,male,EX,F,5,E07,16.998046875
0,1,1,21730,2.3984375,0.181640625,6,0,12,68,8,1262.81457519531,557.0400390625,0,1,faces,male,0,1,faces,A,male,EX,F,5,E07,16.998046875
0,1,0,21732,2.77734375,0.310546875,7,0,13,69,10,1280.9248046875,652.654235839844,0,1,objects,small,0,1,faces,A,male,EX,F,5,E07,16.998046875
0,1,0,21733,3.142578125,0.34375,8,0,5,26,11,755.184387207031,887.255126953125,0,1,faces,female,0,1,faces,A,male,EX,F,5,E07,16.998046875
0,1,0,21736,3.865234375,0.130859375,9,0,8,36,14,848.93798828125,966.497863769531,0,1,faces,male,0,1,faces,A,male,EX,F,5,E07,16.998046875
0,1,0,21749,0.271484375,0.169921875,1,1,1,3,1,569.750549316406,377.270416259766,0,1,objects,big,0,0,faces,P,male,VS,I,6,E07,21.197265625
0,1,1,21751,0.78125,0.1796875,2,1,9,48,3,1069.90185546875,354.173645019531,0,1,faces,male,0,0,faces,P,male,VS,I,6,E07,21.197265625
0,1,1,21755,2.283203125,0.119140625,3,1,10,52,7,1107.39135742188,748.94775390625,0,1,faces,female,0,0,faces,P,male,VS,I,6,E07,21.197265625
0,1,1,21757,2.599609375,0.25,4,1,15,78,9,1399.54357910156,681.117797851562,0,1,faces,male,0,0,faces,P,male,VS,I,6,E07,21.197265625
0,1,1,21759,3.05859375,0.14453125,5,0,14,72,11,1299.78820800781,972.674194335938,0,1,objects,small,0,0,faces,P,male,VS,I,6,E07,21.197265625
0,1,1,21761,3.396484375,0.126953125,6,0,8,44,13,980.976379394531,882.734375,0,1,faces,female,0,0,faces,P,male,VS,I,6,E07,21.197265625
0,1,0,21763,3.8203125,0.203125,7,0,3,9,15,603.546020507812,956.533447265625,0,1,objects,big,0,0,faces,P,male,VS,I,6,E07,21.197265625
0,1,0,21777,0.2578125,0.126953125,1,1,5,13,1,699.317138671875,467.753234863281,0,1,faces,female,1,1,objects,P,big,VS,O,7,E07,25.396484375
0,1,1,21779,0.646484375,0.1875,2,1,2,2,3,531.746765136719,274.255798339844,0,1,faces,male,1,1,objects,P,big,VS,O,7,E07,25.396484375
1,0,0,21781,1.068359375,0.40625,3,1,7,29,5,836.730590820312,256.816253662109,1,0,NaN,NaN,1,1,objects,P,big,VS,O,7,E07,25.396484375
0,0,0,21783,2.18359375,0.21875,4,1,10,60,7,1156.38366699219,688.213256835938,0,1,objects,small,1,1,objects,P,big,VS,O,7,E07,25.396484375
0,0,0,21784,2.4375,0.255859375,5,0,12,71,8,1272.640625,809.910522460938,0,1,objects,small,1,1,objects,P,big,VS,O,7,E07,25.396484375
0,0,0,21785,2.7109375,0.125,6,0,11,70,9,1260.51892089844,779.480651855469,0,1,objects,big,1,1,objects,P,big,VS,O,7,E07,25.396484375
0,0,0,21788,3.64453125,0.140625,7,0,9,42,12,987.466796875,663.599853515625,0,1,faces,female,1,1,objects,P,big,VS,O,7,E07,25.396484375
2,0,0,21789,3.84375,0.14453125,8,0,7,29,13,832.315795898438,275.8017578125,1,0,NaN,NaN,1,1,objects,P,big,VS,O,7,E07,25.396484375
1,1,0,21799,0.4296875,0.12890625,1,1,10,45,2,1005.00708007812,960.901062011719,0,1,objects,small,0,1,faces,P,male,VS,F,8,E07,29.595703125
0,1,0,21800,0.58203125,0.205078125,2,1,11,54,3,1059.80212402344,953.766845703125,0,1,faces,male,0,1,faces,P,male,VS,F,8,E07,29.595703125
0,1,0,21801,0.81640625,0.271484375,3,1,12,63,4,1170.6552734375,947.316223144531,0,1,faces,male,0,1,faces,P,male,VS,F,8,E07,29.595703125
0,1,0,21802,1.134765625,0.208984375,4,1,7,36,5,868.109741210938,957.457885742188,0,1,faces,female,0,1,faces,P,male,VS,F,8,E07,29.595703125
2,1,0,21803,1.369140625,0.17578125,5,0,10,45,6,929.302062988281,967.659545898438,0,1,objects,small,0,1,faces,P,male,VS,F,8,E07,29.595703125
0,1,1,21804,1.583984375,0.240234375,6,0,6,33,7,831.666015625,688.485656738281,0,1,faces,female,0,1,faces,P,male,VS,F,8,E07,29.595703125
1,1,0,21807,2.240234375,0.240234375,7,0,5,31,10,859.057800292969,409.575164794922,0,1,faces,male,0,1,faces,P,male,VS,F,8,E07,29.595703125
2,1,0,21809,3.9765625,0.529296875,8,0,5,31,12,845.926635742188,483.929138183594,0,1,faces,male,0,1,faces,P,male,VS,F,8,E07,29.595703125
0,1,1,21817,0.26171875,0.150390625,1,1,1,2,1,598.786499023438,274.337280273438,0,1,faces,male,0,1,faces,A,male,EX,I,9,E07,33.794921875
0,1,0,21819,1.099609375,0.1953125,2,1,4,11,3,648.775512695312,282.633972167969,0,1,faces,female,0,1,faces,A,male,EX,I,9,E07,33.794921875
0,1,0,21820,1.34375,0.15625,3,1,2,5,4,578.244812011719,588.404663085938,0,1,objects,small,0,1,faces,A,male,EX,I,9,E07,33.794921875
1,1,0,21821,1.517578125,0.216796875,4,1,3,6,5,541.066467285156,593.834899902344,0,1,faces,male,0,1,faces,A,male,EX,I,9,E07,33.794921875
0,1,0,21822,1.76171875,0.2265625,5,0,5,14,6,652.893249511719,576.805053710938,0,1,faces,male,0,1,faces,A,male,EX,I,9,E07,33.794921875
2,1,0,21823,2.03515625,0.228515625,6,0,3,6,7,536.127746582031,676.226013183594,0,1,faces,male,0,1,faces,A,male,EX,I,9,E07,33.794921875
0,1,0,21824,2.306640625,0.341796875,7,0,7,42,8,943.195007324219,684.498474121094,0,1,faces,male,0,1,faces,A,male,EX,I,9,E07,33.794921875
0,1,1,21825,2.666015625,0.16796875,8,0,8,43,9,946.348999023438,732.354248046875,0,1,faces,male,0,1,faces,A,male,EX,I,9,E07,33.794921875
0,1,0,21827,3.109375,0.666015625,9,0,6,35,11,839.541259765625,872.719116210938,0,1,faces,female,0,1,faces,A,male,EX,I,9,E07,33.794921875
0,1,0,21828,3.81640625,0.2421875,10,0,10,62,12,1177.44458007812,853.087951660156,0,1,objects,small,0,1,faces,A,male,EX,I,9,E07,33.794921875
0,1,1,21843,0.50390625,0.154296875,1,1,9,31,1,819.546203613281,450.415344238281,0,1,faces,male,0,1,faces,A,male,VS,I,10,E07,37.994140625
0,1,1,21845,0.96484375,0.30859375,2,1,8,28,3,868.0234375,169.551467895508,0,1,objects,small,0,1,faces,A,male,VS,I,10,E07,37.994140625
1,1,0,21847,1.494140625,0.244140625,3,1,4,11,5,639.355712890625,283.840698242188,0,1,faces,male,0,1,faces,A,male,VS,I,10,E07,37.994140625
2,1,0,21849,1.953125,0.1953125,4,1,4,11,7,650.000183105469,264.983703613281,0,1,faces,male,0,1,faces,A,male,VS,I,10,E07,37.994140625
0,1,1,21850,2.2265625,0.1171875,5,0,14,67,8,1303.81958007812,466.309936523438,0,1,faces,female,0,1,faces,A,male,VS,I,10,E07,37.994140625
0,1,0,21853,2.78125,0.240234375,6,0,13,61,11,1164.8759765625,771.266845703125,0,1,faces,female,0,1,faces,A,male,VS,I,10,E07,37.994140625
0,1,0,21854,3.05078125,0.17578125,7,0,15,71,12,1224.68286132812,836.937744140625,0,1,faces,female,0,1,faces,A,male,VS,I,10,E07,37.994140625
0,1,0,21855,3.2734375,0.240234375,8,0,10,43,13,957.458740234375,780.776672363281,0,1,faces,male,0,1,faces,A,male,VS,I,10,E07,37.994140625
0,1,1,21856,3.54296875,0.1875,9,0,12,53,14,1088.01257324219,875.622375488281,0,1,faces,male,0,1,faces,A,male,VS,I,10,E07,37.994140625
0,1,0,21868,0.20703125,0.16796875,1,1,4,29,2,846.730407714844,261.534576416016,0,1,faces,male,1,1,faces,P,female,VS,I,11,E07,42.193359375
0,1,0,21869,0.416015625,0.208984375,2,1,9,55,3,1135.26525878906,176.597579956055,0,1,faces,female,1,1,faces,P,female,VS,I,11,E07,42.193359375
0,1,0,21871,0.81640625,0.173828125,3,1,8,39,5,944.929931640625,376.597961425781,0,1,faces,female,1,1,faces,P,female,VS,I,11,E07,42.193359375
0,1,0,21872,1.03515625,0.17578125,4,1,5,32,6,855.986267089844,573.421081542969,0,1,objects,big,1,1,faces,P,female,VS,I,11,E07,42.193359375
0,0,1,21873,1.25390625,0.314453125,5,0,1,14,7,636.954162597656,582.314025878906,1,0,NaN,NaN,1,1,faces,P,female,VS,I,11,E07,42.193359375
1,1,0,21890,0.4140625,0.15625,1,1,9,30,2,855.304870605469,344.05322265625,0,1,faces,female,0,1,objects,A,big,VS,O,12,E07,46.392578125
0,1,0,21891,0.609375,0.17578125,2,1,5,21,3,727.330871582031,363.088989257812,0,1,objects,big,0,1,objects,A,big,VS,O,12,E07,46.392578125
0,1,0,21892,0.833984375,0.298828125,3,1,1,2,4,549.025146484375,278.761535644531,0,1,objects,small,0,1,objects,A,big,VS,O,12,E07,46.392578125
1,1,0,21893,1.177734375,0.189453125,4,1,3,5,5,547.574890136719,521.7197265625,0,1,objects,big,0,1,objects,A,big,VS,O,12,E07,46.392578125
0,1,0,21894,1.40234375,0.19921875,5,0,6,24,6,742.919067382812,690.331970214844,0,1,faces,female,0,1,objects,A,big,VS,O,12,E07,46.392578125
0,1,0,21896,1.984375,0.212890625,6,0,7,26,8,737.8134765625,889.911682128906,0,1,faces,male,0,1,objects,A,big,VS,O,12,E07,46.392578125
2,1,0,21899,2.65625,0.1171875,7,0,9,30,11,848.884704589844,378.520843505859,0,1,faces,female,0,1,objects,A,big,VS,O,12,E07,46.392578125
2,1,0,21902,3.39453125,0.115234375,8,0,3,5,14,585.086059570312,510.101165771484,0,1,objects,big,0,1,objects,A,big,VS,O,12,E07,46.392578125
0,1,0,21915,0.677734375,0.27734375,1,1,7,36,3,845.399597167969,972.448486328125,0,1,faces,female,0,1,faces,P,female,VS,I,13,E07,50.591796875
0,1,0,21916,0.998046875,0.15234375,2,1,10,45,4,972.273559570312,959.114685058594,0,1,faces,male,0,1,faces,P,female,VS,I,13,E07,50.591796875
0,1,0,21917,1.18359375,0.158203125,3,1,11,63,5,1183.42395019531,947.682861328125,0,1,objects,big,0,1,faces,P,female,VS,I,13,E07,50.591796875
0,1,0,21918,1.384765625,0.240234375,4,1,14,70,6,1273.87561035156,773.843017578125,0,1,faces,male,0,1,faces,P,female,VS,I,13,E07,50.591796875
0,1,0,21919,1.658203125,0.212890625,5,0,13,69,7,1275.81530761719,652.917785644531,0,1,objects,small,0,1,faces,P,female,VS,I,13,E07,50.591796875
0,1,0,21921,2.150390625,0.162109375,6,0,6,31,9,824.076599121094,481.233917236328,0,1,faces,male,0,1,faces,P,female,VS,I,13,E07,50.591796875
0,1,0,21922,2.34765625,0.271484375,7,0,5,22,10,744.753234863281,485.351165771484,0,1,faces,male,0,1,faces,P,female,VS,I,13,E07,50.591796875
0,1,0,21932,0.439453125,0.1015625,1,1,4,16,3,632.585693359375,776.230407714844,0,1,faces,male,0,0,objects,A,small,VS,O,14,E07,54.791015625
0,1,1,21933,0.58203125,0.150390625,2,1,3,13,4,668.999755859375,451.717437744141,0,1,objects,small,0,0,objects,A,small,VS,O,14,E07,54.791015625
0,1,0,21935,0.923828125,0.162109375,3,1,2,3,6,537.4306640625,342.291381835938,0,1,faces,female,0,0,objects,A,small,VS,O,14,E07,54.791015625
0,1,1,21937,1.2421875,0.21875,4,1,8,38,8,936.89501953125,190.526565551758,0,1,objects,big,0,0,objects,A,small,VS,O,14,E07,54.791015625
0,1,0,21940,2.033203125,0.142578125,5,0,13,75,11,1375.71911621094,366.15380859375,0,1,faces,male,0,0,objects,A,small,VS,O,14,E07,54.791015625
1,1,0,21942,2.474609375,0.19921875,6,0,11,60,13,1148.91247558594,689.012390136719,0,1,objects,small,0,0,objects,A,small,VS,O,14,E07,54.791015625
0,1,0,21943,2.708984375,0.294921875,7,0,15,79,14,1375.94995117188,773.221008300781,0,1,objects,small,0,0,objects,A,small,VS,O,14,E07,54.791015625
2,1,1,21944,3.048828125,0.35546875,8,0,11,60,15,1147.20007324219,664.142578125,0,1,objects,small,0,0,objects,A,small,VS,O,14,E07,54.791015625
0,1,1,21954,0.197265625,0.197265625,1,1,6,20,1,772.06884765625,266.990631103516,0,1,faces,female,0,1,objects,A,small,EX,O,15,E07,58.990234375
0,1,1,21956,0.779296875,0.166015625,2,1,2,14,3,649.906921386719,549.255554199219,0,1,faces,male,0,1,objects,A,small,EX,O,15,E07,58.990234375
0,1,0,21958,1.185546875,0.201171875,3,1,3,15,5,629.602416992188,669.967834472656,0,1,faces,female,0,1,objects,A,small,EX,O,15,E07,58.990234375
0,1,0,21959,1.416015625,0.33984375,4,1,8,33,6,840.611083984375,672.092224121094,0,1,objects,big,0,1,objects,A,small,EX,O,15,E07,58.990234375
0,1,0,21960,1.79296875,0.205078125,5,0,9,42,7,958.9912109375,665.803771972656,0,1,objects,small,0,1,objects,A,small,EX,O,15,E07,58.990234375
0,1,1,21961,2.025390625,0.271484375,6,0,10,52,8,1061.44287109375,771.263671875,0,1,objects,small,0,1,objects,A,small,EX,O,15,E07,58.990234375
0,1,0,21963,2.779296875,0.404296875,7,0,11,53,10,1061.6494140625,861.599365234375,0,1,faces,male,0,1,objects,A,small,EX,O,15,E07,58.990234375
0,1,0,21964,3.234375,0.19921875,8,0,5,18,11,648.552856445312,895.254699707031,0,1,faces,female,0,1,objects,A,small,EX,O,15,E07,58.990234375
0,1,0,21965,3.451171875,0.14453125,9,0,4,17,12,612.84716796875,887.417114257812,0,1,faces,male,0,1,objects,A,small,EX,O,15,E07,58.990234375
0,1,0,21966,3.6328125,0.431640625,10,0,1,8,13,514.378662109375,877.704040527344,0,1,faces,female,0,1,objects,A,small,EX,O,15,E07,58.990234375
0,1,0,21978,0.609375,0.18359375,1,1,13,68,3,1265.49438476562,548.99462890625,1,0,NaN,NaN,1,1,faces,P,female,VS,F,16,E07,63.189453125
0,1,0,21979,0.8359375,0.388671875,2,1,11,60,4,1163.64672851562,666.105529785156,0,1,faces,female,1,1,faces,P,female,VS,F,16,E07,63.189453125
0,1,0,21980,1.263671875,0.154296875,3,1,12,61,5,1171.62731933594,751.018310546875,0,1,faces,male,1,1,faces,P,female,VS,F,16,E07,63.189453125
0,1,0,21981,1.462890625,0.201171875,4,1,15,78,6,1365.03857421875,663.341857910156,0,1,faces,male,1,1,faces,P,female,VS,F,16,E07,63.189453125
0,1,1,21982,1.728515625,0.224609375,5,0,9,42,7,975.738952636719,650.484802246094,0,1,faces,male,1,1,faces,P,female,VS,F,16,E07,63.189453125
0,1,0,21985,2.392578125,0.185546875,6,0,6,25,10,731.224975585938,780.951049804688,0,1,faces,male,1,1,faces,P,female,VS,F,16,E07,63.189453125
1,1,1,21986,2.619140625,0.14453125,7,0,10,54,11,1093.91857910156,981.040100097656,0,1,faces,female,1,1,faces,P,female,VS,F,16,E07,63.189453125
0,1,1,21989,3.5,0.2578125,8,0,2,7,14,514.593933105469,780.524841308594,0,1,faces,male,1,1,faces,P,female,VS,F,16,E07,63.189453125
2,1,0,21991,3.962890625,0.12109375,9,0,10,54,16,1043.73889160156,929.531799316406,0,1,faces,female,1,1,faces,P,female,VS,F,16,E07,63.189453125
0,1,1,22002,0.814453125,0.29296875,1,1,1,6,4,533.299194335938,688.659851074219,0,1,faces,male,0,1,faces,A,female,VS,F,17,E07,67.388671875
0,1,0,22004,1.283203125,0.25,2,1,6,41,6,967.2158203125,579.288940429688,0,1,objects,small,0,1,faces,A,female,VS,F,17,E07,67.388671875
0,1,0,22005,1.57421875,0.2265625,3,1,8,50,7,1052.21203613281,581.870544433594,0,1,faces,female,0,1,faces,A,female,VS,F,17,E07,67.388671875
0,1,0,22006,1.841796875,0.2734375,4,1,14,76,8,1389.63635253906,469.962615966797,0,1,faces,female,0,1,faces,A,female,VS,F,17,E07,67.388671875
0,1,0,22009,2.515625,0.201171875,5,0,10,64,11,1258.76391601562,174.943603515625,0,1,faces,female,0,1,faces,A,female,VS,F,17,E07,67.388671875
0,1,0,22010,2.755859375,0.29296875,6,0,13,74,12,1361.92834472656,275.886810302734,0,1,faces,male,0,1,faces,A,female,VS,F,17,E07,67.388671875
1,1,0,22011,3.13671875,0.1015625,7,0,15,81,13,1316.111328125,983.667724609375,0,1,faces,female,0,1,faces,A,female,VS,F,17,E07,67.388671875
1,1,0,22012,3.2578125,0.1640625,8,0,11,72,14,1266.45483398438,962.882995605469,0,1,faces,male,0,1,faces,A,female,VS,F,17,E07,67.388671875
2,1,0,22013,3.447265625,0.34375,9,0,15,81,15,1388.01062011719,961.344177246094,0,1,faces,female,0,1,faces,A,female,VS,F,17,E07,67.388671875
2,1,0,22014,3.828125,0.1171875,10,0,11,72,16,1285.62390136719,954.310119628906,0,1,faces,male,0,1,faces,A,female,VS,F,17,E07,67.388671875
1,0,1,22023,0.333984375,0.337890625,1,1,11,53,2,1049.38049316406,866.189575195312,1,0,NaN,NaN,1,1,faces,P,female,VS,F,18,E07,71.587890625
0,0,0,22026,1.576171875,0.103515625,2,1,9,41,5,953.701599121094,575.755126953125,0,1,faces,male,1,1,faces,P,female,VS,F,18,E07,71.587890625
0,0,0,22027,1.71875,0.23046875,3,1,10,48,6,1060.74047851562,373.882415771484,0,1,faces,female,1,1,faces,P,female,VS,F,18,E07,71.587890625
0,0,0,22031,2.685546875,0.228515625,4,1,4,21,10,740.947937011719,387.413665771484,0,1,objects,small,1,1,faces,P,female,VS,F,18,E07,71.587890625
0,0,0,22033,3.078125,0.3046875,5,0,5,22,12,747.903991699219,465.570770263672,0,1,faces,male,1,1,faces,P,female,VS,F,18,E07,71.587890625
0,0,1,22034,3.423828125,0.2421875,6,0,13,59,13,1181.91784667969,544.080139160156,0,1,faces,male,1,1,faces,P,female,VS,F,18,E07,71.587890625
2,0,0,22037,3.9921875,0.568359375,7,0,11,53,16,1057.29077148438,859.960266113281,1,0,NaN,NaN,1,1,faces,P,female,VS,F,18,E07,71.587890625
0,1,1,22048,0.220703125,0.1640625,1,1,11,65,1,1300.33825683594,229.21794128418,0,1,faces,male,1,1,faces,P,female,VS,F,19,E07,75.787109375
1,0,0,22050,0.5703125,0.25,2,1,8,46,3,1052.38903808594,190.27326965332,1,0,NaN,NaN,1,1,faces,P,female,VS,F,19,E07,75.787109375
0,0,0,22051,1.798828125,0.796875,3,1,9,47,4,1064.447265625,198.604476928711,0,1,objects,big,1,1,faces,P,female,VS,F,19,E07,75.787109375
2,0,0,22052,2.611328125,0.900390625,4,1,8,46,5,1068.4765625,165.012237548828,1,0,NaN,NaN,1,1,faces,P,female,VS,F,19,E07,75.787109375
0,1,0,22067,0.29296875,0.185546875,1,1,8,24,2,727.207397460938,654.7802734375,0,1,faces,female,0,1,faces,A,male,VS,F,20,E07,79.986328125
1,1,0,22068,0.51953125,0.25,2,1,12,31,3,845.992431640625,443.267700195312,0,1,faces,female,0,1,faces,A,male,VS,F,20,E07,79.986328125
1,1,0,22069,0.80859375,0.12890625,3,1,11,30,4,834.5732421875,341.955932617188,0,1,objects,big,0,1,faces,A,male,VS,F,20,E07,79.986328125
0,1,1,22070,0.982421875,0.208984375,4,1,3,3,5,606.60595703125,371.896606445312,0,1,objects,small,0,1,faces,A,male,VS,F,20,E07,79.986328125
1,1,0,22073,1.966796875,0.17578125,5,0,7,20,8,738.534973144531,281.014007568359,0,1,faces,male,0,1,faces,A,male,VS,F,20,E07,79.986328125
0,1,0,22074,2.17578125,0.263671875,6,0,5,12,9,640.817504882812,383.326873779297,0,1,faces,male,0,1,faces,A,male,VS,F,20,E07,79.986328125
2,1,0,22075,2.486328125,0.3515625,7,0,7,20,10,737.391174316406,276.121398925781,0,1,faces,male,0,1,faces,A,male,VS,F,20,E07,79.986328125
2,1,0,22076,2.876953125,0.12109375,8,0,12,31,11,851.047668457031,406.972534179688,0,1,faces,female,0,1,faces,A,male,VS,F,20,E07,79.986328125
2,1,0,22077,3.015625,0.236328125,9,0,11,30,12,840.248413085938,376.626586914062,0,1,objects,big,0,1,faces,A,male,VS,F,20,E07,79.986328125
3,1,0,22078,3.275390625,0.287109375,10,0,12,31,13,832.185180664062,480.522857666016,0,1,faces,female,0,1,faces,A,male,VS,F,20,E07,79.986328125
0,1,0,22079,3.623046875,0.2109375,11,0,13,59,14,1152.86376953125,553.148559570312,0,1,objects,big,0,1,faces,A,male,VS,F,20,E07,79.986328125
0,1,0,22080,3.869140625,0.140625,12,0,15,67,15,1225.53076171875,482.197143554688,0,1,faces,male,0,1,faces,A,male,VS,F,20,E07,79.986328125
0,1,0,22089,0.23828125,0.1484375,1,1,8,36,1,864.804992675781,956.11962890625,0,1,objects,big,1,1,objects,P,small,VS,O,21,E07,84.185546875
0,1,0,22090,0.421875,0.193359375,2,1,4,25,2,722.256774902344,744.036315917969,0,1,faces,female,1,1,objects,P,small,VS,O,21,E07,84.185546875
0,1,0,22091,0.646484375,0.1875,3,1,3,24,3,723.259765625,641.093078613281,0,1,faces,male,1,1,objects,P,small,VS,O,21,E07,84.185546875
0,1,0,22095,1.271484375,0.177734375,4,1,9,40,7,934.120849609375,469.294097900391,0,1,objects,small,1,1,objects,P,small,VS,O,21,E07,84.185546875
0,0,1,22096,1.49609375,0.248046875,5,0,11,48,8,1055.68127441406,376.316650390625,1,0,NaN,NaN,1,1,objects,P,small,VS,O,21,E07,84.185546875
1,1,0,22105,0.23046875,0.14453125,1,1,10,40,1,1006.80364990234,399.625701904297,0,1,faces,male,0,1,objects,A,big,EX,O,22,E07,88.384765625
0,1,0,22106,0.416015625,0.23046875,2,1,7,30,2,843.998779296875,377.124298095703,0,1,faces,male,0,1,objects,A,big,EX,O,22,E07,88.384765625
0,1,1,22107,0.6953125,0.1328125,3,1,4,11,3,674.962646484375,269.296417236328,0,1,faces,female,0,1,objects,A,big,EX,O,22,E07,88.384765625
0,1,1,22109,1.068359375,0.333984375,4,1,6,28,5,837.842102050781,186.255096435547,0,1,objects,big,0,1,objects,A,big,EX,O,22,E07,88.384765625
2,1,0,22111,1.61328125,0.15625,5,0,10,40,7,1005.98425292969,399.581695556641,0,1,faces,male,0,1,objects,A,big,EX,O,22,E07,88.384765625
0,1,0,22112,1.7890625,0.216796875,6,0,12,48,8,1041.93371582031,377.729736328125,0,1,faces,female,0,1,objects,A,big,EX,O,22,E07,88.384765625
0,1,0,22113,2.044921875,0.29296875,7,0,13,49,9,1045.64343261719,484.303070068359,0,1,faces,male,0,1,objects,A,big,EX,O,22,E07,88.384765625
3,1,0,22114,2.376953125,0.146484375,8,0,10,40,10,932.828735351562,472.859802246094,0,1,faces,male,0,1,objects,A,big,EX,O,22,E07,88.384765625
0,1,0,22115,2.560546875,0.216796875,9,0,14,50,11,1041.18139648438,570.072570800781,0,1,faces,female,0,1,objects,A,big,EX,O,22,E07,88.384765625
0,1,0,22116,2.8203125,0.333984375,10,0,15,60,12,1158.439453125,650.140686035156,0,1,faces,female,0,1,objects,A,big,EX,O,22,E07,88.384765625
0,1,0,22117,3.197265625,0.318359375,11,0,11,42,13,955.52490234375,668.8984375,0,1,objects,big,0,1,objects,A,big,EX,O,22,E07,88.384765625
0,1,0,22131,0.37109375,0.1328125,1,1,9,35,3,833.617004394531,880.000671386719,0,1,faces,female,1,1,faces,P,female,VS,I,23,E07,92.583984375
0,1,0,22132,0.53125,0.15234375,2,1,4,18,4,675.997192382812,988.336608886719,0,1,faces,male,1,1,faces,P,female,VS,I,23,E07,92.583984375
0,1,0,22134,1.029296875,0.197265625,3,1,15,63,6,1142.32897949219,949.054870605469,0,1,faces,male,1,1,faces,P,female,VS,I,23,E07,92.583984375
0,1,0,22135,1.28515625,0.18359375,4,1,13,51,7,1064.05773925781,642.976135253906,0,1,objects,big,1,1,faces,P,female,VS,I,23,E07,92.583984375
1,1,0,22140,2.35546875,0.2109375,5,0,10,38,12,910.506713867188,231.270050048828,0,1,faces,male,1,1,faces,P,female,VS,I,23,E07,92.583984375
0,1,1,22141,2.60546875,0.26953125,6,0,12,47,13,1041.54064941406,197.464050292969,0,1,objects,big,1,1,faces,P,female,VS,I,23,E07,92.583984375
0,0,0,22143,3.12109375,0.21484375,7,0,14,55,15,1161.0595703125,180.748519897461,1,0,NaN,NaN,1,1,faces,P,female,VS,I,23,E07,92.583984375
2,0,0,22144,3.380859375,0.130859375,8,0,10,38,16,944.275512695312,289.610443115234,0,1,faces,male,1,1,faces,P,female,VS,I,23,E07,92.583984375
0,1,1,22156,0.22265625,0.138671875,1,1,4,32,1,877.364440917969,583.174865722656,0,1,objects,big,0,1,faces,A,female,EX,I,24,E07,96.783203125
0,1,0,22158,0.666015625,0.291015625,2,1,3,15,3,611.88330078125,674.895751953125,0,1,objects,small,0,1,faces,A,female,EX,I,24,E07,96.783203125
0,1,0,22160,1.306640625,0.17578125,3,1,6,35,5,836.304077148438,792.063293457031,0,1,faces,female,0,1,faces,A,female,EX,I,24,E07,96.783203125
0,1,0,22161,1.5,0.126953125,4,1,5,34,6,844.528442382812,772.157897949219,0,1,faces,male,0,1,faces,A,female,EX,I,24,E07,96.783203125
0,1,0,22162,1.66015625,0.24609375,5,0,10,52,7,1065.6396484375,751.502136230469,0,1,faces,male,0,1,faces,A,female,EX,I,24,E07,96.783203125
1,1,0,22163,1.9453125,0.181640625,6,0,13,78,8,1368.43823242188,675.989562988281,0,1,objects,small,0,1,faces,A,female,EX,I,24,E07,96.783203125
0,1,0,22164,2.15625,0.14453125,7,0,14,79,9,1397.99377441406,723.821716308594,0,1,faces,male,0,1,faces,A,female,EX,I,24,E07,96.783203125
2,1,0,22165,2.33203125,0.205078125,8,0,13,78,10,1386.03063964844,644.254333496094,0,1,objects,small,0,1,faces,A,female,EX,I,24,E07,96.783203125
0,1,0,22166,2.578125,0.494140625,9,0,12,76,11,1376.63134765625,461.00732421875,0,1,faces,female,0,1,faces,A,female,EX,I,24,E07,96.783203125
0,1,0,22167,3.115234375,0.330078125,10,0,11,56,12,1128.57849121094,272.777008056641,0,1,faces,female,0,1,faces,A,female,EX,I,24,E07,96.783203125
0,1,0,22168,3.46875,0.263671875,11,0,9,47,13,1057.95812988281,277.038421630859,0,1,faces,male,0,1,faces,A,female,EX,I,24,E07,96.783203125
0,1,0,22169,3.767578125,0.32421875,12,0,8,46,14,1041.5234375,178.252258300781,0,1,faces,female,0,1,faces,A,female,EX,I,24,E07,96.783203125
0,1,1,22185,0.232421875,0.15234375,1,1,6,47,1,1099.15698242188,264.175964355469,0,1,faces,male,1,1,faces,P,female,VS,F,25,E07,100.982421875
0,1,1,22187,0.59765625,0.208984375,2,1,4,11,3,662.329528808594,236.881637573242,0,1,faces,female,1,1,faces,P,female,VS,F,25,E07,100.982421875
0,1,0,22189,0.947265625,0.138671875,3,1,3,10,5,637.456420898438,135.90576171875,0,1,objects,big,1,1,faces,P,female,VS,F,25,E07,100.982421875
0,1,0,22190,1.166015625,0.2265625,4,1,11,64,6,1268.45397949219,147.649124145508,0,1,faces,female,1,1,faces,P,female,VS,F,25,E07,100.982421875
0,1,0,22191,1.447265625,0.12890625,5,0,14,77,7,1315.8505859375,537.521667480469,0,1,faces,male,1,1,faces,P,female,VS,F,25,E07,100.982421875
0,1,0,22192,1.611328125,0.205078125,6,0,12,68,8,1265.94030761719,538.314819335938,0,1,faces,female,1,1,faces,P,female,VS,F,25,E07,100.982421875
0,1,1,22193,1.892578125,0.17578125,7,0,2,6,9,557.742004394531,651.964538574219,1,0,NaN,NaN,1,1,faces,P,female,VS,F,25,E07,100.982421875
0,1,0,22209,0.236328125,0.15234375,1,1,3,31,1,847.94189453125,418.300018310547,0,1,objects,big,1,1,faces,P,female,VS,F,26,E07,105.181640625
0,1,0,22210,0.419921875,0.1875,2,1,6,39,2,972.020202636719,347.832763671875,0,1,faces,female,1,1,faces,P,female,VS,F,26,E07,105.181640625
0,0,1,22211,0.6484375,0.25390625,3,1,11,68,3,1282.93432617188,521.869873046875,1,0,NaN,NaN,1,1,faces,P,female,VS,F,26,E07,105.181640625
0,0,0,22213,1.68359375,0.21484375,4,1,10,66,5,1263.67529296875,345.941802978516,0,1,faces,male,1,1,faces,P,female,VS,F,26,E07,105.181640625
0,0,0,22214,1.9296875,0.33203125,5,0,9,56,6,1141.29187011719,233.663208007812,0,1,faces,female,1,1,faces,P,female,VS,F,26,E07,105.181640625
0,0,0,22215,2.3125,0.171875,6,0,5,37,7,936.957397460938,136.688247680664,0,1,objects,big,1,1,faces,P,female,VS,F,26,E07,105.181640625
0,0,0,22216,2.53125,0.169921875,7,0,1,19,8,731.986206054688,138.546630859375,0,1,faces,female,1,1,faces,P,female,VS,F,26,E07,105.181640625
0,0,1,22217,2.77734375,0.125,8,0,14,79,9,1398.86413574219,741.314392089844,0,1,faces,male,1,1,faces,P,female,VS,F,26,E07,105.181640625
0,0,0,22219,3.099609375,0.24609375,9,0,15,80,11,1380.44079589844,834.408630371094,0,1,faces,male,1,1,faces,P,female,VS,F,26,E07,105.181640625
0,0,1,22220,3.3984375,0.1484375,10,0,4,36,12,873.004028320312,958.125122070312,0,1,faces,female,1,1,faces,P,female,VS,F,26,E07,105.181640625
0,1,0,22229,0.201171875,0.16015625,1,1,7,38,1,975.113159179688,272.072418212891,0,1,objects,small,0,1,faces,A,female,VS,I,27,E07,109.380859375
0,1,0,22231,0.556640625,0.181640625,2,1,10,55,3,1129.09948730469,152.559722900391,0,1,faces,male,0,1,faces,A,female,VS,I,27,E07,109.380859375
0,1,0,22233,0.990234375,0.20703125,3,1,9,48,5,1046.75830078125,348.764617919922,0,1,faces,female,0,1,faces,A,female,VS,I,27,E07,109.380859375
0,1,0,22234,1.24609375,0.26953125,4,1,14,69,6,1243.31616210938,629.508117675781,0,1,faces,female,0,1,faces,A,female,VS,I,27,E07,109.380859375
0,1,0,22235,1.55859375,0.234375,5,0,15,80,7,1374.50268554688,822.875549316406,0,1,faces,male,0,1,faces,A,female,VS,I,27,E07,109.380859375
0,1,0,22236,1.833984375,0.2578125,6,0,12,62,8,1174.61962890625,832.629760742188,0,1,faces,male,0,1,faces,A,female,VS,I,27,E07,109.380859375
0,1,0,22237,2.12890625,0.197265625,7,0,13,63,9,1186.26416015625,921.517578125,0,1,faces,male,0,1,faces,A,female,VS,I,27,E07,109.380859375
0,1,0,22238,2.39453125,0.2265625,8,0,4,17,10,631.653564453125,859.736450195312,0,1,faces,female,0,1,faces,A,female,VS,I,27,E07,109.380859375
0,1,0,22239,2.650390625,0.3359375,9,0,3,16,11,622.924926757812,746.20654296875,0,1,faces,female,0,1,faces,A,female,VS,I,27,E07,109.380859375
0,1,0,22241,3.240234375,0.30078125,10,0,2,14,13,633.417236328125,557.859802246094,0,1,faces,female,0,1,faces,A,female,VS,I,27,E07,109.380859375
0,1,1,22242,3.5859375,0.150390625,11,0,1,10,14,690.498901367188,129.66455078125,0,1,objects,small,0,1,faces,A,female,VS,I,27,E07,109.380859375
0,1,0,22253,0.224609375,0.123046875,1,1,3,11,1,680.037170410156,213.649337768555,0,1,objects,small,0,1,faces,A,female,EX,I,28,E07,113.580078125
0,1,0,22254,0.373046875,0.291015625,2,1,2,10,2,659.825866699219,138.559097290039,0,1,faces,male,0,1,faces,A,female,EX,I,28,E07,113.580078125
0,1,1,22255,0.69140625,0.18359375,3,1,5,19,3,766.241516113281,134.080551147461,0,1,faces,female,0,1,faces,A,female,EX,I,28,E07,113.580078125
0,1,0,22257,1.021484375,0.23046875,4,1,8,28,5,855.762268066406,149.413757324219,0,1,faces,male,0,1,faces,A,female,EX,I,28,E07,113.580078125
0,1,0,22258,1.298828125,0.1875,5,0,6,20,6,736.44189453125,284.285095214844,0,1,objects,big,0,1,faces,A,female,EX,I,28,E07,113.580078125
0,1,1,22259,1.517578125,0.130859375,6,0,7,21,7,771.986755371094,360.436737060547,0,1,faces,female,0,1,faces,A,female,EX,I,28,E07,113.580078125
0,1,0,22261,1.814453125,0.251953125,7,0,10,40,9,956.567138671875,455.889190673828,0,1,faces,female,0,1,faces,A,female,EX,I,28,E07,113.580078125
1,1,0,22262,2.09765625,0.119140625,8,0,12,59,10,1125.3779296875,569.536804199219,0,1,objects,small,0,1,faces,A,female,EX,I,28,E07,113.580078125
0,1,0,22263,2.251953125,0.296875,9,0,11,51,11,1054.34106445312,634.050537109375,0,1,faces,male,0,1,faces,A,female,EX,I,28,E07,113.580078125
2,1,0,22265,2.75390625,0.125,10,0,12,59,13,1189.01550292969,534.916809082031,0,1,objects,small,0,1,faces,A,female,EX,I,28,E07,113.580078125
0,1,0,22266,2.91015625,0.208984375,11,0,15,77,14,1379.13830566406,528.809448242188,0,1,faces,female,0,1,faces,A,female,EX,I,28,E07,113.580078125
0,1,0,22267,3.1640625,0.310546875,12,0,13,70,15,1283.73510742188,729.415283203125,0,1,objects,small,0,1,faces,A,female,EX,I,28,E07,113.580078125
0,1,0,22268,3.498046875,0.251953125,13,0,14,71,16,1270.1181640625,819.628662109375,0,1,objects,big,0,1,faces,A,female,EX,I,28,E07,113.580078125
0,1,0,22283,0.37109375,0.28125,1,1,2,16,2,625.366821289062,749.295654296875,0,1,faces,male,1,1,faces,P,male,VS,I,29,E07,117.779296875
0,1,0,22284,0.685546875,0.22265625,2,1,5,34,3,861.318603515625,728.211364746094,0,1,faces,male,1,1,faces,P,male,VS,I,29,E07,117.779296875
0,1,0,22285,0.955078125,0.2734375,3,1,7,42,4,957.995849609375,643.163696289062,0,1,faces,female,1,1,faces,P,male,VS,I,29,E07,117.779296875
0,1,0,22287,1.4375,0.208984375,4,1,3,22,6,738.042175292969,446.559204101562,0,1,objects,small,1,1,faces,P,male,VS,I,29,E07,117.779296875
1,1,0,22288,1.69140625,0.234375,5,0,1,11,7,659.038696289062,260.259704589844,0,1,faces,male,1,1,faces,P,male,VS,I,29,E07,117.779296875
0,1,0,22289,1.96484375,0.287109375,6,0,6,37,8,967.854248046875,147.530380249023,0,1,faces,female,1,1,faces,P,male,VS,I,29,E07,117.779296875
2,1,1,22290,2.3125,0.166015625,7,0,1,11,9,675.125305175781,235.612869262695,0,1,faces,male,1,1,faces,P,male,VS,I,29,E07,117.779296875
0,1,1,22292,2.671875,0.17578125,8,0,9,55,11,1141.35729980469,157.243988037109,0,1,faces,male,1,1,faces,P,male,VS,I,29,E07,117.779296875
0,1,1,22294,3.033203125,0.142578125,9,0,10,65,13,1282.41467285156,246.983139038086,0,1,faces,female,1,1,faces,P,male,VS,I,29,E07,117.779296875
0,1,0,22296,3.4140625,0.23828125,10,0,8,48,15,1048.42163085938,346.880310058594,0,1,faces,female,1,1,faces,P,male,VS,I,29,E07,117.779296875
0,1,1,22297,3.69140625,0.166015625,11,0,15,76,16,1315.23400878906,446.691162109375,1,0,NaN,NaN,1,1,faces,P,male,VS,I,29,E07,117.779296875
0,1,0,22308,0.240234375,0.181640625,1,1,10,63,1,1135.04907226562,901.587768554688,0,1,objects,small,0,1,faces,A,male,VS,F,30,E07,121.978515625
0,1,0,22309,0.46484375,0.28125,2,1,15,79,2,1367.45263671875,725.877868652344,0,1,faces,male,0,1,faces,A,male,VS,F,30,E07,121.978515625
0,1,0,22310,0.779296875,0.21875,3,1,13,69,3,1276.28405761719,649.304626464844,0,1,faces,male,0,1,faces,A,male,VS,F,30,E07,121.978515625
0,1,1,22311,1.044921875,0.234375,4,1,9,59,4,1161.41625976562,541.857116699219,0,1,faces,male,0,1,faces,A,male,VS,F,30,E07,121.978515625
0,1,0,22313,1.560546875,0.28515625,5,0,8,40,6,944.374450683594,425.548400878906,0,1,faces,female,0,1,faces,A,male,VS,F,30,E07,121.978515625
0,1,0,22314,1.875,0.2265625,6,0,7,39,7,956.544860839844,341.164855957031,0,1,faces,female,0,1,faces,A,male,VS,F,30,E07,121.978515625
0,1,1,22315,2.138671875,0.1796875,7,0,12,66,8,1272.84069824219,338.474517822266,0,1,faces,male,0,1,faces,A,male,VS,F,30,E07,121.978515625
0,1,0,22317,2.5,0.228515625,8,0,11,64,10,1240.83093261719,162.108062744141,0,1,objects,big,0,1,faces,A,male,VS,F,30,E07,121.978515625
0,1,0,22318,2.798828125,0.232421875,9,0,4,19,11,732.757202148438,137.841018676758,0,1,faces,female,0,1,faces,A,male,VS,F,30,E07,121.978515625
1,1,0,22319,3.0703125,0.3046875,10,0,2,11,12,641.143920898438,255.373916625977,0,1,faces,male,0,1,faces,A,male,VS,F,30,E07,121.978515625
2,1,0,22321,3.572265625,0.19140625,11,0,2,11,14,641.699035644531,249.601577758789,0,1,faces,male,0,1,faces,A,male,VS,F,30,E07,121.978515625
0,1,0,22336,0.435546875,0.166015625,1,1,9,36,2,843.343627929688,946.8095703125,0,1,faces,female,0,1,faces,A,male,VS,I,31,E07,126.177734375
0,1,0,22337,0.642578125,0.126953125,2,1,4,17,3,690.123229980469,837.663696289062,0,1,objects,small,0,1,faces,A,male,VS,I,31,E07,126.177734375
0,1,0,22339,1.01953125,0.232421875,3,1,7,24,5,713.551208496094,677.465087890625,0,1,objects,big,0,1,faces,A,male,VS,I,31,E07,126.177734375
0,1,0,22341,1.443359375,0.15625,4,1,3,13,7,641.887573242188,439.451751708984,0,1,objects,small,0,1,faces,A,male,VS,I,31,E07,126.177734375
1,1,0,22342,1.626953125,0.10546875,5,0,6,21,8,723.508483886719,353.619903564453,0,1,faces,male,0,1,faces,A,male,VS,I,31,E07,126.177734375
0,1,0,22344,1.94921875,0.224609375,6,0,1,5,10,536.549438476562,541.212768554688,0,1,faces,male,0,1,faces,A,male,VS,I,31,E07,126.177734375
0,1,1,22345,2.21484375,0.14453125,7,0,2,11,11,666.508605957031,274.35693359375,0,1,faces,female,0,1,faces,A,male,VS,I,31,E07,126.177734375
2,1,1,22347,2.609375,0.16015625,8,0,6,21,13,743.037780761719,368.535797119141,0,1,faces,male,0,1,faces,A,male,VS,I,31,E07,126.177734375
0,1,0,22349,2.943359375,0.134765625,9,0,5,20,15,759.936950683594,241.386856079102,0,1,objects,big,0,1,faces,A,male,VS,I,31,E07,126.177734375
0,1,0,22350,3.115234375,0.267578125,10,0,10,46,16,1071.65319824219,152.142364501953,0,1,faces,male,0,1,faces,A,male,VS,I,31,E07,126.177734375
0,1,0,22351,3.41796875,0.234375,11,0,13,57,17,1138.42248535156,342.375854492188,0,1,faces,male,0,1,faces,A,male,VS,I,31,E07,126.177734375
0,1,0,22352,3.689453125,0.33984375,12,0,11,49,18,1079.1640625,444.065338134766,0,1,faces,male,0,1,faces,A,male,VS,I,31,E07,126.177734375
0,1,0,22362,0.2265625,0.197265625,1,1,4,25,1,736.443237304688,729.57470703125,0,1,faces,male,1,1,objects,P,small,VS,O,32,E07,130.376953125
1,1,0,22363,0.4609375,0.134765625,2,1,3,22,2,801.421508789062,484.327728271484,1,0,NaN,NaN,1,1,objects,P,small,VS,O,32,E07,130.376953125
0,1,0,22364,1.912109375,0.22265625,3,1,2,21,3,742.178955078125,328.393676757812,0,1,faces,female,1,1,objects,P,small,VS,O,32,E07,130.376953125
0,1,0,22365,2.1875,0.216796875,4,1,6,32,4,843.093383789062,527.396057128906,0,1,faces,male,1,1,objects,P,small,VS,O,32,E07,130.376953125
2,1,1,22366,2.4453125,0.173828125,5,0,3,22,5,727.673034667969,439.458831787109,1,0,NaN,NaN,1,1,objects,P,small,VS,O,32,E07,130.376953125
0,0,1,22369,3.1796875,0.13671875,6,0,9,58,8,1209.01147460938,462.424530029297,0,1,objects,big,1,1,objects,P,small,VS,O,32,E07,130.376953125
0,0,0,22371,3.66796875,0.32421875,7,0,10,59,10,1172.72265625,503.360778808594,0,1,objects,big,1,1,objects,P,small,VS,O,32,E07,130.376953125
0,1,1,22382,0.45703125,0.1328125,1,1,4,15,2,673.00244140625,615.709045410156,0,1,faces,male,0,1,objects,A,big,VS,O,33,E07,134.576171875
0,1,0,22386,1.2109375,0.201171875,2,1,9,36,6,835.770629882812,936.379333496094,0,1,objects,small,0,1,objects,A,big,VS,O,33,E07,134.576171875
0,1,0,22388,1.76953125,0.34375,3,1,15,81,8,1378.65295410156,892.423034667969,0,1,objects,big,0,1,objects,A,big,VS,O,33,E07,134.576171875
0,1,0,22390,2.32421875,0.14453125,4,1,8,32,10,833.550231933594,539.3740234375,0,1,faces,female,0,1,objects,A,big,VS,O,33,E07,134.576171875
0,1,0,22392,2.763671875,0.1484375,5,0,12,48,12,1055.75073242188,343.269134521484,0,1,objects,small,0,1,objects,A,big,VS,O,33,E07,134.576171875
0,1,0,22394,3.12890625,0.16015625,6,0,11,46,14,1052.501953125,153.021011352539,0,1,faces,male,0,1,objects,A,big,VS,O,33,E07,134.576171875
0,1,0,22395,3.353515625,0.22265625,7,0,6,21,15,738.914428710938,338.605194091797,0,1,faces,female,0,1,objects,A,big,VS,O,33,E07,134.576171875
0,1,0,22396,3.61328125,0.205078125,8,0,1,1,16,576.815124511719,130.163040161133,0,1,faces,male,0,1,objects,A,big,VS,O,33,E07,134.576171875
0,1,0,22397,3.861328125,0.23828125,9,0,10,38,17,970.242065429688,235.921600341797,0,1,faces,female,0,1,objects,A,big,VS,O,33,E07,134.576171875
0,1,1,22406,0.212890625,0.18359375,1,1,9,40,1,944.45751953125,466.16796875,0,1,faces,female,0,1,faces,A,female,VS,F,34,E07,138.775390625
0,1,1,22408,0.564453125,0.142578125,2,1,10,55,3,1183.91162109375,167.239440917969,0,1,faces,female,0,1,faces,A,female,VS,F,34,E07,138.775390625
0,1,0,22410,0.927734375,0.169921875,3,1,15,73,5,1338.24035644531,150.264999389648,0,1,objects,small,0,1,faces,A,female,VS,F,34,E07,138.775390625
0,1,0,22411,1.140625,0.126953125,4,1,11,56,6,1124.30029296875,261.575286865234,0,1,objects,big,0,1,faces,A,female,VS,F,34,E07,138.775390625
0,1,1,22412,1.337890625,0.12109375,5,0,2,4,7,600.231018066406,410.116882324219,0,1,faces,female,0,1,faces,A,female,VS,F,34,E07,138.775390625
0,1,0,22414,1.755859375,0.185546875,6,0,6,22,9,751.507080078125,444.129272460938,0,1,faces,male,0,1,faces,A,female,VS,F,34,E07,138.775390625
0,1,0,22415,1.98828125,0.24609375,7,0,1,3,10,558.790100097656,342.808837890625,0,1,faces,male,0,1,faces,A,female,VS,F,34,E07,138.775390625
0,1,0,22416,2.283203125,0.2109375,8,0,3,6,11,560.542419433594,689.207336425781,0,1,objects,big,0,1,faces,A,female,VS,F,34,E07,138.775390625
0,1,0,22417,2.5234375,0.21875,9,0,5,17,12,632.186401367188,834.731750488281,0,1,faces,male,0,1,faces,A,female,VS,F,34,E07,138.775390625
0,1,0,22418,2.779296875,0.109375,10,0,8,26,13,746.273132324219,848.088745117188,0,1,objects,small,0,1,faces,A,female,VS,F,34,E07,138.775390625
0,1,1,22419,2.958984375,0.12890625,11,0,12,60,14,1203.50134277344,671.237243652344,0,1,faces,female,0,1,faces,A,female,VS,F,34,E07,138.775390625
0,1,0,22421,3.369140625,0.208984375,12,0,14,70,16,1275.02233886719,746.981140136719,0,1,faces,female,0,1,faces,A,female,VS,F,34,E07,138.775390625
0,1,0,22422,3.623046875,0.275390625,13,0,13,63,17,1163.38293457031,943.576232910156,0,1,faces,male,0,1,faces,A,female,VS,F,34,E07,138.775390625
0,1,0,22433,0.22265625,0.15234375,1,1,4,11,1,627.197998046875,221.950866699219,0,1,objects,small,0,1,objects,A,small,VS,O,35,E07,142.974609375
1,1,0,22434,0.4140625,0.16015625,2,1,2,2,2,542.737854003906,218.863311767578,0,1,faces,female,0,1,objects,A,small,VS,O,35,E07,142.974609375
0,1,0,22435,0.599609375,0.17578125,3,1,1,1,3,549.147155761719,131.463317871094,0,1,objects,big,0,1,objects,A,small,VS,O,35,E07,142.974609375
0,1,0,22437,1.021484375,0.171875,4,1,12,65,5,1232.07104492188,237.623962402344,0,1,faces,female,0,1,objects,A,small,VS,O,35,E07,142.974609375
1,1,0,22438,1.240234375,0.2890625,5,0,10,38,6,960.258361816406,253.107284545898,0,1,objects,small,0,1,objects,A,small,VS,O,35,E07,142.974609375
0,1,0,22439,1.580078125,0.2734375,6,0,9,32,7,818.621398925781,529.297180175781,0,1,objects,small,0,1,objects,A,small,VS,O,35,E07,142.974609375
0,1,0,22441,2.181640625,0.236328125,7,0,6,16,9,687.206176757812,765.946472167969,0,1,faces,female,0,1,objects,A,small,VS,O,35,E07,142.974609375
0,1,0,22443,2.560546875,0.220703125,8,0,8,26,11,744.995666503906,846.511047363281,0,1,objects,big,0,1,objects,A,small,VS,O,35,E07,142.974609375
2,1,0,22447,3.451171875,0.240234375,9,0,2,2,15,608.896179199219,211.758178710938,0,1,faces,female,0,1,objects,A,small,VS,O,35,E07,142.974609375
2,1,0,22448,3.73046875,0.203125,10,0,10,38,16,938.853149414062,227.955001831055,0,1,objects,small,0,1,objects,A,small,VS,O,35,E07,142.974609375
0,1,0,22462,0.302734375,0.17578125,1,1,5,17,2,651.721496582031,796.150634765625,0,1,faces,female,1,1,objects,P,small,VS,O,36,E07,147.173828125
0,1,0,22464,0.783203125,0.17578125,2,1,9,42,4,959.650939941406,621.927185058594,0,1,objects,big,1,1,objects,P,small,VS,O,36,E07,147.173828125
0,1,0,22465,0.994140625,0.158203125,3,1,13,60,5,1196.8623046875,606.307373046875,0,1,objects,big,1,1,objects,P,small,VS,O,36,E07,147.173828125
0,1,0,22466,1.193359375,0.140625,4,1,15,77,6,1377.74853515625,518.672729492188,0,1,faces,female,1,1,objects,P,small,VS,O,36,E07,147.173828125
0,1,1,22467,1.400390625,0.15625,5,0,7,32,7,875.09912109375,525.853210449219,0,1,faces,male,1,1,objects,P,small,VS,O,36,E07,147.173828125
0,1,0,22469,1.736328125,0.251953125,6,0,4,15,9,619.533142089844,637.70068359375,0,1,faces,male,1,1,objects,P,small,VS,O,36,E07,147.173828125
0,1,0,22471,2.228515625,0.138671875,7,0,10,45,11,946.037109375,914.981994628906,0,1,objects,small,1,1,objects,P,small,VS,O,36,E07,147.173828125
0,0,0,22473,2.572265625,0.26953125,8,0,2,10,13,657.476257324219,189.579956054688,1,1,faces,male,1,1,objects,P,small,VS,O,36,E07,147.173828125
0,0,1,22474,2.87109375,0.314453125,9,0,3,11,14,631.33544921875,242.485977172852,1,0,NaN,NaN,1,1,objects,P,small,VS,O,36,E07,147.173828125
0,1,1,22488,0.53125,0.142578125,1,1,10,53,3,1104.10876464844,815.893188476562,0,1,objects,small,0,1,objects,A,small,EX,O,37,E07,151.373046875
0,1,0,22490,0.994140625,0.173828125,2,1,11,62,5,1190.91247558594,809.228210449219,0,1,objects,big,0,1,objects,A,small,EX,O,37,E07,151.373046875
0,1,1,22492,1.296875,0.166015625,3,1,15,81,7,1372.31811523438,918.491333007812,0,1,faces,male,0,1,objects,A,small,EX,O,37,E07,151.373046875
0,1,1,22494,1.787109375,0.154296875,4,1,12,67,9,1231.8291015625,415.263641357422,0,1,faces,female,0,1,objects,A,small,EX,O,37,E07,151.373046875
0,1,0,22496,2.1640625,0.3828125,5,0,14,74,11,1358.65954589844,226.255279541016,0,1,faces,female,0,1,objects,A,small,EX,O,37,E07,151.373046875
0,1,0,22497,2.572265625,0.35546875,6,0,13,73,12,1345.84765625,150.50798034668,0,1,faces,male,0,1,objects,A,small,EX,O,37,E07,151.373046875
0,1,1,22498,2.9765625,0.158203125,7,0,8,38,13,967.724914550781,228.500701904297,0,1,faces,female,0,1,objects,A,small,EX,O,37,E07,151.373046875
0,1,0,22500,3.50390625,0.21484375,8,0,7,37,15,923.595336914062,156.137130737305,0,1,faces,male,0,1,objects,A,small,EX,O,37,E07,151.373046875
0,1,0,22501,3.765625,0.318359375,9,0,4,20,16,736.579345703125,256.602325439453,0,1,faces,male,0,1,objects,A,small,EX,O,37,E07,151.373046875
0,1,1,22514,0.279296875,0.107421875,1,1,3,7,1,583.26318359375,715.766357421875,0,1,objects,big,0,1,faces,A,female,EX,F,38,E07,155.572265625
0,1,0,22516,1.333984375,0.212890625,2,1,9,43,3,984.6845703125,734.756042480469,0,1,objects,big,0,1,faces,A,female,EX,F,38,E07,155.572265625
0,1,0,22517,1.572265625,0.2265625,3,1,13,52,4,1079.99597167969,706.656005859375,0,1,faces,male,0,1,faces,A,female,EX,F,38,E07,155.572265625
0,1,0,22518,1.8359375,0.23046875,4,1,12,50,5,1056.41516113281,538.283142089844,0,1,faces,male,0,1,faces,A,female,EX,F,38,E07,155.572265625
0,1,1,22519,2.10546875,0.2421875,5,0,14,58,6,1142.85986328125,428.417449951172,0,1,faces,female,0,1,faces,A,female,EX,F,38,E07,155.572265625
0,1,1,22521,2.740234375,0.28515625,6,0,15,77,8,1377.25854492188,530.768737792969,0,1,objects,small,0,1,faces,A,female,EX,F,38,E07,155.572265625
0,1,0,22523,3.326171875,0.25390625,7,0,11,48,10,1047.18688964844,319.313598632812,0,1,objects,small,0,1,faces,A,female,EX,F,38,E07,155.572265625
0,1,0,22524,3.626953125,0.1484375,8,0,8,37,11,918.948425292969,144.587265014648,0,1,objects,small,0,1,faces,A,female,EX,F,38,E07,155.572265625
0,1,0,22525,3.810546875,0.185546875,9,0,6,28,12,839.589782714844,146.031372070312,0,1,faces,female,0,1,faces,A,female,EX,F,38,E07,155.572265625
0,0,0,22533,0.220703125,0.255859375,1,1,6,33,1,810.932067871094,631.580383300781,1,0,NaN,NaN,1,0,faces,P,female,VS,I,39,E07,159.771484375
0,0,1,22534,0.529296875,0.265625,2,1,3,25,2,742.167175292969,737.373657226562,0,1,faces,female,1,0,faces,P,female,VS,I,39,E07,159.771484375
0,0,0,22537,1.15234375,0.181640625,3,1,9,58,5,1156.49865722656,438.028778076172,0,1,faces,male,1,0,faces,P,female,VS,I,39,E07,159.771484375
0,0,0,22538,1.369140625,0.298828125,4,1,7,38,6,987.139404296875,247.768173217773,0,1,faces,male,1,0,faces,P,female,VS,I,39,E07,159.771484375
0,0,0,22539,1.693359375,0.10546875,5,0,8,47,7,1046.1748046875,235.562881469727,0,1,faces,female,1,0,faces,P,female,VS,I,39,E07,159.771484375
0,0,0,22540,1.845703125,0.24609375,6,0,1,19,8,730.863708496094,137.351455688477,0,1,faces,female,1,0,faces,P,female,VS,I,39,E07,159.771484375
0,0,1,22541,2.171875,0.142578125,7,0,14,77,9,1406.19165039062,520.942016601562,0,1,faces,male,1,0,faces,P,female,VS,I,39,E07,159.771484375
1,0,0,22543,2.521484375,0.236328125,8,0,13,70,11,1280.44372558594,707.801147460938,0,1,faces,female,1,0,faces,P,female,VS,I,39,E07,159.771484375
0,0,0,22544,2.798828125,0.185546875,9,0,11,62,12,1144.90966796875,861.978881835938,0,1,objects,big,1,0,faces,P,female,VS,I,39,E07,159.771484375
0,0,0,22545,3.037109375,0.37890625,10,0,4,27,13,716.872802734375,960.0380859375,0,1,faces,female,1,0,faces,P,female,VS,I,39,E07,159.771484375
2,0,1,22546,3.48828125,0.10546875,11,0,13,70,14,1224.84875488281,760.084655761719,0,1,faces,female,1,0,faces,P,female,VS,I,39,E07,159.771484375
0,1,0,22558,0.390625,0.23828125,1,1,6,33,2,822.764770507812,645.121704101562,0,1,faces,female,0,0,objects,A,big,EX,O,40,E07,163.970703125
0,1,0,22559,0.6640625,0.248046875,2,1,4,25,3,723.539855957031,746.799865722656,0,1,faces,male,0,0,objects,A,big,EX,O,40,E07,163.970703125
0,1,1,22560,0.94921875,0.11328125,3,1,5,26,4,765.458923339844,817.729614257812,0,1,faces,male,0,0,objects,A,big,EX,O,40,E07,163.970703125
0,1,0,22562,1.224609375,0.283203125,4,1,9,44,6,951.011962890625,827.842529296875,0,1,faces,male,0,0,objects,A,big,EX,O,40,E07,163.970703125
0,1,0,22563,1.537109375,0.236328125,5,0,11,54,7,1028.19885253906,928.898864746094,0,1,objects,big,0,0,objects,A,big,EX,O,40,E07,163.970703125
0,1,1,22564,1.8125,0.16015625,6,0,14,69,8,1255.35498046875,649.4697265625,0,1,faces,female,0,0,objects,A,big,EX,O,40,E07,163.970703125
0,1,0,22566,2.1875,0.212890625,7,0,15,77,10,1364.04138183594,518.143432617188,0,1,faces,female,0,0,objects,A,big,EX,O,40,E07,163.970703125
0,1,0,22567,2.44140625,0.234375,8,0,13,57,11,1129.27185058594,340.088012695312,0,1,objects,big,0,0,objects,A,big,EX,O,40,E07,163.970703125
0,1,0,22568,2.720703125,0.357421875,9,0,8,40,12,935.663330078125,425.792297363281,0,1,objects,big,0,0,objects,A,big,EX,O,40,E07,163.970703125
0,1,1,22569,3.123046875,0.125,10,0,7,37,13,992.012329101562,145.344268798828,0,1,faces,male,0,0,objects,A,big,EX,O,40,E07,163.970703125
0,1,0,22571,3.482421875,0.236328125,11,0,12,55,15,1160.66979980469,144.231002807617,0,1,faces,female,0,0,objects,A,big,EX,O,40,E07,163.970703125
0,1,0,22572,3.78515625,0.2421875,12,0,3,19,16,747.285095214844,148.612579345703,0,1,faces,male,0,0,objects,A,big,EX,O,40,E07,163.970703125
0,1,0,22589,0.54296875,0.287109375,1,1,2,8,3,585.018310546875,857.63037109375,0,1,objects,small,1,1,faces,P,female,VS,F,41,E07,168.169921875
0,1,0,22590,0.880859375,0.1875,2,1,9,36,4,811.976989746094,938.994934082031,0,1,faces,female,1,1,faces,P,female,VS,F,41,E07,168.169921875
0,1,0,22591,1.1015625,0.21484375,3,1,11,53,5,1049.34057617188,841.48681640625,0,1,faces,male,1,1,faces,P,female,VS,F,41,E07,168.169921875
0,1,0,22592,1.357421875,0.236328125,4,1,14,69,6,1220.78503417969,630.801330566406,0,1,faces,female,1,1,faces,P,female,VS,F,41,E07,168.169921875
0,0,1,22593,2.49609375,0.2421875,5,0,13,60,7,1164.92297363281,625.197570800781,1,0,NaN,NaN,1,1,faces,P,female,VS,F,41,E07,168.169921875
0,1,0,22606,0.375,0.119140625,1,1,6,26,2,792.031677246094,829.37646484375,0,1,faces,male,1,1,faces,P,female,VS,I,42,E07,172.369140625
0,1,0,22609,0.978515625,0.271484375,2,1,4,14,5,623.320129394531,562.448913574219,0,1,faces,female,1,1,faces,P,female,VS,I,42,E07,172.369140625
0,1,0,22610,1.2890625,0.125,3,1,2,3,6,573.003173828125,384.757202148438,0,1,objects,big,1,1,faces,P,female,VS,I,42,E07,172.369140625
0,0,1,22611,1.455078125,0.248046875,4,1,5,22,7,750.162719726562,437.102325439453,1,0,NaN,NaN,1,1,faces,P,female,VS,I,42,E07,172.369140625
0,1,0,22625,0.244140625,0.171875,1,1,1,12,1,653.364685058594,329.997100830078,0,1,faces,female,1,1,faces,P,female,VS,F,43,E07,176.568359375
0,1,0,22626,0.45703125,0.142578125,2,1,4,22,2,728.426330566406,434.882202148438,0,1,faces,male,1,1,faces,P,female,VS,F,43,E07,176.568359375
0,0,1,22627,0.638671875,0.205078125,3,1,2,13,3,616.663269042969,445.741516113281,1,0,NaN,NaN,1,1,faces,P,female,VS,F,43,E07,176.568359375
0,1,0,22638,0.32421875,0.158203125,1,1,13,74,2,1401.21276855469,252.611083984375,0,1,faces,female,1,1,objects,P,big,VS,O,44,E07,180.767578125
0,1,0,22639,0.552734375,0.169921875,2,1,5,31,3,815.946655273438,433.071960449219,0,1,faces,female,1,1,objects,P,big,VS,O,44,E07,180.767578125
0,1,0,22640,0.744140625,0.28125,3,1,4,22,4,760.840698242188,462.746215820312,0,1,objects,small,1,1,objects,P,big,VS,O,44,E07,180.767578125
0,0,1,22642,1.228515625,1.017578125,4,1,2,6,6,561.69384765625,663.055358886719,1,0,NaN,NaN,1,1,objects,P,big,VS,O,44,E07,180.767578125
0,1,1,22659,0.232421875,0.1796875,1,1,2,23,1,750.66259765625,579.128112792969,0,1,faces,male,0,1,faces,A,male,EX,F,45,E07,184.966796875
0,1,0,22662,0.787109375,0.14453125,2,1,1,6,4,512.220947265625,649.479553222656,0,1,faces,male,0,1,faces,A,male,EX,F,45,E07,184.966796875
0,1,0,22663,0.96484375,0.310546875,3,1,3,24,5,770.447937011719,649.007141113281,0,1,faces,female,0,1,faces,A,male,EX,F,45,E07,184.966796875
0,1,0,22664,1.314453125,0.17578125,4,1,4,33,6,868.95556640625,643.030639648438,0,1,faces,female,0,1,faces,A,male,EX,F,45,E07,184.966796875
0,1,1,22665,1.529296875,0.17578125,5,0,7,51,7,1095.78076171875,609.814392089844,0,1,faces,male,0,1,faces,A,male,EX,F,45,E07,184.966796875
0,1,0,22667,1.890625,0.25390625,6,0,11,60,9,1168.4365234375,615.229553222656,0,1,objects,small,0,1,faces,A,male,EX,F,45,E07,184.966796875
0,1,0,22668,2.169921875,0.203125,7,0,12,61,10,1184.81494140625,729.807189941406,0,1,faces,male,0,1,faces,A,male,EX,F,45,E07,184.966796875
0,1,0,22670,2.625,0.15234375,8,0,8,54,12,1029.60693359375,913.269653320312,0,1,objects,big,0,1,faces,A,male,EX,F,45,E07,184.966796875
0,1,0,22671,2.814453125,0.25390625,9,0,6,45,13,941.031005859375,927.78466796875,0,1,faces,male,0,1,faces,A,male,EX,F,45,E07,184.966796875
0,1,0,22672,3.107421875,0.189453125,10,0,5,36,14,832.607055664062,950.752319335938,0,1,faces,female,0,1,faces,A,male,EX,F,45,E07,184.966796875
0,1,0,22674,3.5234375,0.29296875,11,0,10,58,16,1140.16467285156,444.669738769531,0,1,objects,small,0,1,faces,A,male,EX,F,45,E07,184.966796875
1,1,1,22688,0.4453125,0.125,1,1,9,37,3,972.463195800781,127.535514831543,1,0,NaN,NaN,1,1,objects,P,big,VS,O,46,E07,189.166015625
0,0,1,22690,2.12109375,0.16796875,2,1,4,15,5,684.294677734375,689.973510742188,0,1,faces,female,1,1,objects,P,big,VS,O,46,E07,189.166015625
2,0,1,22694,2.91796875,0.2265625,3,1,9,37,9,952.339050292969,165.57063293457,1,0,NaN,NaN,1,1,objects,P,big,VS,O,46,E07,189.166015625
1,1,0,22713,0.62109375,0.244140625,1,1,5,31,3,836.022521972656,460.236968994141,0,1,objects,small,0,0,faces,A,male,EX,I,47,E07,193.365234375
0,1,1,22714,0.9140625,0.3046875,2,1,3,12,4,630.143249511719,358.925964355469,0,1,objects,small,0,0,faces,A,male,EX,I,47,E07,193.365234375
2,1,0,22716,1.44140625,0.171875,3,1,5,31,6,847.046813964844,434.395812988281,0,1,objects,small,0,0,faces,A,male,EX,I,47,E07,193.365234375
0,1,0,22717,1.65625,0.287109375,4,1,4,14,7,618.28515625,563.857116699219,0,1,faces,male,0,0,faces,A,male,EX,I,47,E07,193.365234375
0,1,0,22718,1.986328125,0.17578125,5,0,1,5,8,520.319213867188,548.430358886719,0,1,faces,male,0,0,faces,A,male,EX,I,47,E07,193.365234375
0,1,0,22721,2.515625,0.2734375,6,0,6,36,11,843.683410644531,956.236022949219,0,1,faces,male,0,0,faces,A,male,EX,I,47,E07,193.365234375
0,1,0,22722,2.830078125,0.29296875,7,0,10,54,12,1065.58703613281,923.517822265625,0,1,faces,male,0,0,faces,A,male,EX,I,47,E07,193.365234375
0,1,0,22723,3.166015625,0.275390625,8,0,9,52,13,1070.63317871094,714.110900878906,0,1,faces,female,0,0,faces,A,male,EX,I,47,E07,193.365234375
0,1,0,22724,3.478515625,0.236328125,9,0,13,69,14,1263.99914550781,609.7080078125,0,1,faces,female,0,0,faces,A,male,EX,I,47,E07,193.365234375
0,1,0,22725,3.748046875,0.181640625,10,0,15,77,15,1359.68542480469,518.397399902344,0,1,objects,small,0,0,faces,A,male,EX,I,47,E07,193.365234375
0,1,0,22741,0.447265625,0.236328125,1,1,1,12,2,625.697021484375,337.685089111328,0,1,faces,male,1,1,faces,P,male,VS,I,48,E07,197.564453125
0,1,1,22742,0.76171875,0.1484375,2,1,10,57,3,1144.60180664062,297.295806884766,0,1,faces,female,1,1,faces,P,male,VS,I,48,E07,197.564453125
0,1,0,22744,1.173828125,0.244140625,3,1,11,59,5,1160.10632324219,526.917602539062,0,1,faces,female,1,1,faces,P,male,VS,I,48,E07,197.564453125
1,0,0,22745,1.453125,0.236328125,4,1,14,77,6,1368.20959472656,513.710876464844,1,0,NaN,NaN,1,1,faces,P,male,VS,I,48,E07,197.564453125
0,0,0,22746,1.75,0.177734375,5,0,12,60,7,1150.96728515625,619.280822753906,0,1,faces,female,1,1,faces,P,male,VS,I,48,E07,197.564453125
2,0,0,22747,3.455078125,0.25,6,0,14,77,8,1356.27197265625,534.140869140625,1,0,NaN,NaN,1,1,faces,P,male,VS,I,48,E07,197.564453125
0,0,0,22748,3.765625,0.203125,7,0,15,80,9,1314.39575195312,800.796936035156,0,1,faces,male,1,1,faces,P,male,VS,I,48,E07,197.564453125
0,1,0,22758,0.38671875,0.146484375,1,1,9,48,2,1082.1640625,315.630401611328,0,1,faces,female,1,1,faces,P,male,VS,F,49,E07,201.763671875
0,1,1,22759,0.572265625,0.2265625,2,1,12,64,3,1276.20593261719,153.613998413086,0,1,faces,male,1,1,faces,P,male,VS,F,49,E07,201.763671875
0,1,1,22761,0.962890625,0.2890625,3,1,14,75,5,1350.67712402344,344.048309326172,0,1,faces,male,1,1,faces,P,male,VS,F,49,E07,201.763671875
0,1,0,22763,1.419921875,0.126953125,4,1,15,76,7,1363.66345214844,418.836242675781,0,1,objects,big,1,1,faces,P,male,VS,F,49,E07,201.763671875
0,0,1,22764,1.58984375,0.896484375,5,0,10,59,8,1172.20178222656,518.778564453125,1,0,NaN,NaN,1,1,faces,P,male,VS,F,49,E07,201.763671875
0,1,0,22779,0.7890625,0.185546875,1,1,11,47,4,1020.88775634766,240.454620361328,0,1,faces,male,1,1,objects,P,small,VS,O,50,E07,205.962890625
0,1,0,22780,1.021484375,0.212890625,2,1,7,28,5,845.130493164062,183.349853515625,0,1,objects,big,1,1,objects,P,small,VS,O,50,E07,205.962890625
0,0,1,22782,1.4296875,0.494140625,3,1,5,19,7,749.638305664062,139.763702392578,1,0,NaN,NaN,1,1,objects,P,small,VS,O,50,E07,205.962890625
0,1,0,22795,0.255859375,0.365234375,1,1,1,11,1,633.094116210938,226.804916381836,0,1,objects,small,0,1,faces,A,female,EX,F,51,E07,210.162109375
0,1,1,22796,0.66015625,0.1640625,2,1,5,40,2,970.178283691406,412.635101318359,0,1,faces,male,0,1,faces,A,female,EX,F,51,E07,210.162109375
0,1,0,22798,1.052734375,0.291015625,3,1,6,41,4,978.854248046875,500.705688476562,0,1,faces,female,0,1,faces,A,female,EX,F,51,E07,210.162109375
0,1,0,22800,1.751953125,0.142578125,4,1,15,78,6,1310.5703125,672.164306640625,0,1,objects,big,0,1,faces,A,female,EX,F,51,E07,210.162109375
0,1,0,22802,2.18359375,0.169921875,5,0,7,44,8,1002.45715332031,802.439636230469,0,1,objects,big,0,1,faces,A,female,EX,F,51,E07,210.162109375
0,1,1,22803,2.384765625,0.474609375,6,0,4,34,9,854.58447265625,737.220947265625,0,1,faces,female,0,1,faces,A,female,EX,F,51,E07,210.162109375
0,1,0,22805,2.998046875,0.21484375,7,0,8,45,11,986.817993164062,890.926635742188,0,1,objects,big,0,1,faces,A,female,EX,F,51,E07,210.162109375
0,1,0,22807,3.58203125,0.177734375,8,0,3,18,13,632.183715820312,939.368408203125,0,1,faces,male,0,1,faces,A,female,EX,F,51,E07,210.162109375
0,1,0,22808,3.865234375,0.18359375,9,0,2,16,14,628.85693359375,740.592224121094,0,1,objects,small,0,1,faces,A,female,EX,F,51,E07,210.162109375
0,1,0,22817,0.251953125,0.234375,1,1,9,49,2,1042.79772949219,425.826812744141,0,1,faces,female,1,1,faces,P,female,VS,I,52,E07,214.361328125
0,0,1,22818,1.9296875,0.42578125,2,1,10,57,3,1177.70581054688,324.523559570312,1,0,NaN,NaN,1,1,faces,P,female,VS,I,52,E07,214.361328125
0,1,0,22839,1.802734375,0.1484375,1,1,6,47,8,1063.68823242188,224.031539916992,0,1,faces,female,0,1,objects,A,small,VS,O,53,E07,218.560546875
0,1,0,22840,1.97265625,0.19921875,2,1,7,48,9,1072.85034179688,302.409484863281,0,1,objects,big,0,1,objects,A,small,VS,O,53,E07,218.560546875
1,1,0,22841,2.197265625,0.1875,3,1,9,57,10,1173.03637695312,310.299926757812,0,1,faces,male,0,1,objects,A,small,VS,O,53,E07,218.560546875
0,1,0,22842,2.41015625,0.125,4,1,13,66,11,1273.28820800781,303.653930664062,0,1,faces,male,0,1,objects,A,small,VS,O,53,E07,218.560546875
2,1,0,22843,2.572265625,0.23828125,5,0,9,57,12,1167.63854980469,388.752960205078,0,1,faces,male,0,1,objects,A,small,VS,O,53,E07,218.560546875
0,1,0,22844,2.85546875,0.330078125,6,0,4,19,13,725.7421875,166.88623046875,0,1,objects,small,0,1,objects,A,small,VS,O,53,E07,218.560546875
0,1,0,22846,3.44140625,0.17578125,7,0,1,2,15,553.66552734375,233.8564453125,0,1,faces,male,0,1,objects,A,small,VS,O,53,E07,218.560546875
0,1,0,22847,3.662109375,0.169921875,8,0,2,4,16,557.789489746094,434.060333251953,0,1,faces,female,0,1,objects,A,small,VS,O,53,E07,218.560546875
0,1,1,22861,0.203125,0.171875,1,1,8,39,1,1004.92718505859,380.290618896484,0,1,faces,female,1,1,faces,P,female,VS,F,54,E07,222.759765625
1,1,0,22863,0.619140625,0.17578125,2,1,6,22,3,729.481567382812,424.873657226562,1,0,NaN,NaN,1,1,faces,P,female,VS,F,54,E07,222.759765625
0,1,0,22864,0.8359375,0.1171875,3,1,3,12,4,628.350341796875,303.714050292969,0,1,faces,male,1,1,faces,P,female,VS,F,54,E07,222.759765625
2,1,1,22865,0.984375,0.171875,4,1,6,22,5,763.296142578125,444.686431884766,1,0,NaN,NaN,1,1,faces,P,female,VS,F,54,E07,222.759765625
0,1,1,22878,0.119140625,0.1328125,1,1,7,30,1,889.67138671875,327.397094726562,0,1,faces,male,1,1,objects,P,small,VS,O,55,E07,226.958984375
0,1,1,22880,0.517578125,0.189453125,2,1,13,56,3,1143.71704101562,242.838668823242,0,1,objects,small,1,1,objects,P,small,VS,O,55,E07,226.958984375
0,1,0,22882,0.919921875,0.322265625,3,1,12,55,5,1177.22448730469,133.862380981445,0,1,objects,big,1,1,objects,P,small,VS,O,55,E07,226.958984375
0,1,0,22883,1.2890625,0.23046875,4,1,9,38,6,932.5380859375,220.121063232422,0,1,faces,male,1,1,objects,P,small,VS,O,55,E07,226.958984375
0,1,0,22884,1.568359375,0.1796875,5,0,5,20,7,746.549926757812,249.050582885742,0,1,faces,male,1,1,objects,P,small,VS,O,55,E07,226.958984375
0,1,0,22885,1.8125,0.109375,6,0,1,4,8,545.429748535156,457.618804931641,0,1,faces,male,1,1,objects,P,small,VS,O,55,E07,226.958984375
0,0,0,22886,1.96484375,0.48046875,7,0,2,15,9,627.651550292969,637.586791992188,1,0,NaN,NaN,1,1,objects,P,small,VS,O,55,E07,226.958984375
0,1,0,22900,0.26171875,0.134765625,1,1,8,52,2,1048.29943847656,765.816284179688,0,1,objects,small,1,1,objects,P,big,VS,O,56,E07,231.158203125
0,1,1,22902,0.484375,0.146484375,2,1,7,42,4,953.202819824219,631.532653808594,0,1,objects,small,1,1,objects,P,big,VS,O,56,E07,231.158203125
0,1,0,22905,1.140625,0.13671875,3,1,11,60,7,1179.79626464844,627.344665527344,0,1,objects,big,1,1,objects,P,big,VS,O,56,E07,231.158203125
0,0,0,22907,1.48828125,0.734375,4,1,14,80,9,1397.11547851562,791.732116699219,1,0,NaN,NaN,1,1,objects,P,big,VS,O,56,E07,231.158203125
0,1,1,22924,0.248046875,0.14453125,1,1,3,21,1,793.662475585938,297.074523925781,0,1,faces,female,0,0,faces,A,female,EX,I,57,E07,235.357421875
0,1,0,22926,0.79296875,0.3359375,2,1,1,2,3,535.803283691406,252.542541503906,0,1,objects,big,0,0,faces,A,female,EX,I,57,E07,235.357421875
0,1,1,22927,1.16796875,0.248046875,3,1,6,30,4,827.518310546875,308.569793701172,0,1,objects,small,0,0,faces,A,female,EX,I,57,E07,235.357421875
0,1,0,22929,1.71875,0.2421875,4,1,7,31,6,836.021606445312,439.141143798828,0,1,faces,male,0,0,faces,A,female,EX,I,57,E07,235.357421875
0,1,0,22930,2.001953125,0.2265625,5,0,4,24,7,746.10791015625,638.189025878906,0,1,faces,female,0,0,faces,A,female,EX,I,57,E07,235.357421875
0,1,0,22931,2.70703125,0.115234375,6,0,8,36,8,834.046142578125,931.094177246094,0,1,faces,male,0,0,faces,A,female,EX,I,57,E07,235.357421875
0,1,0,22932,2.892578125,0.28125,7,0,10,61,9,1190.67077636719,703.334655761719,0,1,faces,male,0,0,faces,A,female,EX,I,57,E07,235.357421875
0,1,0,22933,3.220703125,0.283203125,8,0,13,71,10,1304.34777832031,798.012451171875,0,1,objects,small,0,0,faces,A,female,EX,I,57,E07,235.357421875
0,1,0,22952,0.240234375,0.16015625,1,1,9,57,1,1196.06140136719,385.575347900391,0,1,objects,big,0,1,faces,A,male,VS,F,58,E07,239.556640625
0,1,0,22953,0.419921875,0.171875,2,1,10,58,2,1164.1455078125,411.262573242188,0,1,faces,female,0,1,faces,A,male,VS,F,58,E07,239.556640625
0,1,1,22954,0.630859375,0.19140625,3,1,12,65,3,1296.53637695312,228.177490234375,0,1,faces,male,0,1,faces,A,male,VS,F,58,E07,239.556640625
0,1,1,22956,1.0625,0.12890625,4,1,1,1,5,590.6669921875,169.269027709961,0,1,faces,male,0,1,faces,A,male,VS,F,58,E07,239.556640625
1,1,0,22958,1.48828125,0.310546875,5,0,3,11,7,637.828857421875,257.531677246094,0,1,faces,male,0,1,faces,A,male,VS,F,58,E07,239.556640625
0,1,0,22959,1.83203125,0.2421875,6,0,4,12,8,656.958557128906,338.136993408203,0,1,faces,female,0,1,faces,A,male,VS,F,58,E07,239.556640625
2,1,0,22960,2.10546875,0.271484375,7,0,3,11,9,668.032043457031,233.958724975586,0,1,faces,male,0,1,faces,A,male,VS,F,58,E07,239.556640625
0,1,1,22961,2.455078125,0.138671875,8,0,5,15,10,669.494140625,657.996398925781,0,1,faces,male,0,1,faces,A,male,VS,F,58,E07,239.556640625
0,1,0,22963,2.921875,0.232421875,9,0,7,43,12,941.120422363281,728.591857910156,0,1,faces,male,0,1,faces,A,male,VS,F,58,E07,239.556640625
0,1,1,22964,3.19140625,0.18359375,10,0,11,62,13,1151.88220214844,789.501892089844,0,1,faces,male,0,1,faces,A,male,VS,F,58,E07,239.556640625
1,1,0,22978,0.201171875,0.150390625,1,1,8,24,1,783.888000488281,598.762939453125,0,1,objects,big,0,1,objects,A,big,VS,O,59,E07,243.755859375
0,1,0,22982,1.12890625,0.287109375,2,1,2,2,5,544.591064453125,237.915679931641,0,1,objects,small,0,1,objects,A,big,VS,O,59,E07,243.755859375
0,1,1,22984,1.59765625,0.158203125,3,1,10,49,7,1098.3818359375,405.814483642578,0,1,faces,male,0,1,objects,A,big,VS,O,59,E07,243.755859375
0,1,0,22986,1.90625,0.14453125,4,1,12,59,9,1184.38708496094,525.957641601562,0,1,faces,female,0,1,objects,A,big,VS,O,59,E07,243.755859375
1,1,0,22987,2.083984375,0.18359375,5,0,13,67,10,1287.638671875,427.540435791016,0,1,objects,big,0,1,objects,A,big,VS,O,59,E07,243.755859375
0,1,0,22988,2.30078125,0.33984375,6,0,15,75,11,1376.17443847656,327.809661865234,0,1,faces,female,0,1,objects,A,big,VS,O,59,E07,243.755859375
2,1,0,22989,2.68359375,0.169921875,7,0,13,67,12,1281.47619628906,433.482757568359,0,1,objects,big,0,1,objects,A,big,VS,O,59,E07,243.755859375
0,1,0,22991,3.060546875,0.150390625,8,0,14,70,14,1292.74987792969,724.519775390625,0,1,faces,male,0,1,objects,A,big,VS,O,59,E07,243.755859375
0,1,0,22992,3.26953125,0.162109375,9,0,11,54,15,1067.58447265625,908.339050292969,0,1,objects,small,0,1,objects,A,big,VS,O,59,E07,243.755859375
0,1,0,22993,3.595703125,0.21875,10,0,4,7,16,567.686279296875,721.638122558594,0,1,faces,male,0,1,objects,A,big,VS,O,59,E07,243.755859375
2,1,0,22994,3.84765625,0.193359375,11,0,8,24,17,804.353088378906,631.856994628906,0,1,objects,big,0,1,objects,A,big,VS,O,59,E07,243.755859375
0,1,0,23010,0.337890625,0.146484375,1,1,8,33,2,835.467956542969,626.576721191406,0,1,faces,female,0,0,faces,A,female,VS,I,60,E07,247.955078125
0,1,0,23012,0.712890625,0.162109375,2,1,2,8,4,515.698486328125,848.389282226562,0,1,faces,male,0,0,faces,A,female,VS,I,60,E07,247.955078125
0,1,0,23013,0.919921875,0.20703125,3,1,3,9,5,523.312561035156,964.330322265625,0,1,faces,female,0,0,faces,A,female,VS,I,60,E07,247.955078125
0,1,0,23014,1.212890625,0.166015625,4,1,13,53,6,1070.4853515625,790.585388183594,0,1,faces,female,0,0,faces,A,female,VS,I,60,E07,247.955078125
0,1,0,23018,2.0546875,0.224609375,5,0,15,70,10,1296.81604003906,716.435302734375,0,1,objects,big,0,0,faces,A,female,VS,I,60,E07,247.955078125
0,1,0,23020,2.52734375,0.130859375,6,0,10,39,12,950.361389160156,349.553070068359,0,1,faces,female,0,0,faces,A,female,VS,I,60,E07,247.955078125
1,1,0,23021,2.685546875,0.185546875,7,0,12,49,13,1076.16174316406,454.060760498047,0,1,faces,female,0,0,faces,A,female,VS,I,60,E07,247.955078125
0,1,0,23022,2.908203125,0.255859375,8,0,9,38,14,994.6728515625,252.028564453125,0,1,objects,small,0,0,faces,A,female,VS,I,60,E07,247.955078125
2,1,1,23023,3.2109375,0.146484375,9,0,12,49,15,1082.99755859375,457.695037841797,0,1,faces,female,0,0,faces,A,female,VS,I,60,E07,247.955078125
0,1,0,23037,0.208984375,0.146484375,1,1,6,29,1,830.836120605469,265.064392089844,0,1,objects,small,0,1,faces,A,female,VS,F,61,E07,252.154296875
0,1,0,23038,0.400390625,0.181640625,2,1,4,22,2,723.776123046875,420.484344482422,0,1,faces,female,0,1,faces,A,female,VS,F,61,E07,252.154296875
0,1,0,23039,0.625,0.19921875,3,1,2,4,3,527.39013671875,434.633972167969,0,1,faces,male,0,1,faces,A,female,VS,F,61,E07,252.154296875
0,1,1,23040,0.86328125,0.134765625,4,1,5,25,4,718.666625976562,776.137390136719,0,1,faces,female,0,1,faces,A,female,VS,F,61,E07,252.154296875
0,1,0,23042,1.171875,0.125,5,0,7,34,6,863.82275390625,744.929748535156,0,1,faces,male,0,1,faces,A,female,VS,F,61,E07,252.154296875
0,1,0,23043,1.337890625,0.20703125,6,0,9,61,7,1176.81994628906,745.698791503906,0,1,objects,small,0,1,faces,A,female,VS,F,61,E07,252.154296875
0,1,0,23044,1.5859375,0.205078125,7,0,15,81,8,1394.78137207031,920.698974609375,0,1,faces,female,0,1,faces,A,female,VS,F,61,E07,252.154296875
0,1,0,23045,1.865234375,0.109375,8,0,14,75,9,1324.13256835938,300.071960449219,0,1,objects,small,0,1,faces,A,female,VS,F,61,E07,252.154296875
1,1,0,23046,2.00390625,0.169921875,9,0,13,74,10,1325.3583984375,192.212661743164,0,1,faces,female,0,1,faces,A,female,VS,F,61,E07,252.154296875
0,1,0,23047,2.197265625,0.384765625,10,0,10,64,11,1259.96362304688,128.945556640625,0,1,faces,female,0,1,faces,A,female,VS,F,61,E07,252.154296875
0,1,0,23048,2.609375,0.330078125,11,0,12,73,12,1355.84655761719,138.230224609375,0,1,faces,female,0,1,faces,A,female,VS,F,61,E07,252.154296875
2,1,0,23049,2.9765625,0.30078125,12,0,13,74,13,1367.66271972656,238.993911743164,0,1,faces,female,0,1,faces,A,female,VS,F,61,E07,252.154296875
0,1,1,23051,3.537109375,0.25390625,13,0,8,49,15,1051.48974609375,454.026916503906,0,1,faces,male,0,1,faces,A,female,VS,F,61,E07,252.154296875
0,1,0,23064,0.353515625,0.1484375,1,1,7,30,2,881.513549804688,301.598785400391,0,1,faces,male,0,0,faces,A,male,EX,I,62,E07,256.353515625
0,1,0,23065,0.5234375,0.19921875,2,1,6,29,3,864.1669921875,244.503387451172,0,1,faces,female,0,0,faces,A,male,EX,I,62,E07,256.353515625
0,1,0,23066,0.76953125,0.1875,3,1,2,11,4,616.364562988281,236.173416137695,0,1,objects,small,0,0,faces,A,male,EX,I,62,E07,256.353515625
0,1,0,23067,1.04296875,0.240234375,4,1,9,37,5,963.873352050781,128.798904418945,0,1,faces,female,0,0,faces,A,male,EX,I,62,E07,256.353515625
0,1,0,23068,1.33984375,0.138671875,5,0,13,65,6,1239.22534179688,228.824432373047,0,1,objects,big,0,0,faces,A,male,EX,I,62,E07,256.353515625
0,1,0,23069,1.5,0.185546875,6,0,11,56,7,1177.00231933594,241.838668823242,0,1,objects,big,0,0,faces,A,male,EX,I,62,E07,256.353515625
0,1,1,23070,1.7109375,0.1640625,7,0,15,74,8,1319.82287597656,225.504577636719,0,1,faces,male,0,0,faces,A,male,EX,I,62,E07,256.353515625
0,1,0,23072,2.12890625,0.287109375,8,0,12,57,10,1180.84252929688,343.038024902344,0,1,faces,male,0,0,faces,A,male,EX,I,62,E07,256.353515625
0,1,0,23074,2.607421875,0.17578125,9,0,14,70,12,1291.7255859375,731.691589355469,0,1,faces,female,0,0,faces,A,male,EX,I,62,E07,256.353515625
0,1,1,23075,2.828125,0.181640625,10,0,5,25,13,744.954162597656,749.842590332031,0,1,faces,female,0,0,faces,A,male,EX,I,62,E07,256.353515625
0,1,1,23091,0.224609375,0.125,1,1,3,15,1,661.736267089844,610.52197265625,0,1,faces,male,0,1,objects,A,big,EX,O,63,E07,260.552734375
0,1,1,23093,0.564453125,0.12109375,2,1,1,5,3,566.154846191406,492.402191162109,0,1,faces,female,0,1,objects,A,big,EX,O,63,E07,260.552734375
0,1,0,23095,0.986328125,0.298828125,3,1,2,13,5,611.306884765625,445.245056152344,0,1,faces,male,0,1,objects,A,big,EX,O,63,E07,260.552734375
0,1,0,23096,1.318359375,0.232421875,4,1,5,24,6,735.556457519531,631.014282226562,0,1,faces,female,0,1,objects,A,big,EX,O,63,E07,260.552734375
0,1,1,23097,1.63671875,0.279296875,5,0,7,45,7,938.114929199219,892.264831542969,0,1,objects,big,0,1,objects,A,big,EX,O,63,E07,260.552734375
0,1,1,23099,2.1484375,0.244140625,6,0,15,79,9,1312.6591796875,698.689392089844,0,1,faces,female,0,1,objects,A,big,EX,O,63,E07,260.552734375
0,1,1,23102,3.07421875,0.166015625,7,0,11,58,12,1194.52136230469,402.577880859375,0,1,faces,female,0,1,objects,A,big,EX,O,63,E07,260.552734375
0,1,0,23104,3.443359375,0.19140625,8,0,13,67,14,1277.64794921875,421.667541503906,0,1,objects,small,0,1,objects,A,big,EX,O,63,E07,260.552734375
0,1,0,23105,3.681640625,0.185546875,9,0,9,49,15,1050.05737304688,444.757537841797,0,1,faces,female,0,1,objects,A,big,EX,O,63,E07,260.552734375
0,1,1,23119,0.244140625,0.240234375,1,1,7,44,2,966.17333984375,810.230041503906,0,1,faces,female,1,0,faces,P,male,VS,F,64,E07,264.751953125
0,1,0,23121,0.61328125,0.212890625,2,1,10,54,4,1089.17395019531,919.546875,0,1,objects,small,1,0,faces,P,male,VS,F,64,E07,264.751953125
0,1,0,23122,0.873046875,0.169921875,3,1,14,70,5,1282.55346679688,735.341369628906,0,1,faces,male,1,0,faces,P,male,VS,F,64,E07,264.751953125
0,1,0,23123,1.11328125,0.16796875,4,1,6,36,6,832.797424316406,940.648071289062,0,1,faces,male,1,0,faces,P,male,VS,F,64,E07,264.751953125
0,1,0,23126,1.7890625,0.26171875,5,0,4,23,9,714.774047851562,552.687438964844,0,1,objects,big,1,0,faces,P,male,VS,F,64,E07,264.751953125
0,1,0,23129,2.375,0.1015625,6,0,5,28,12,872.312744140625,121.522636413574,0,1,objects,big,1,0,faces,P,male,VS,F,64,E07,264.751953125
0,0,0,23130,2.509765625,0.296875,7,0,8,46,13,1078.66674804688,120.376502990723,1,0,NaN,NaN,1,0,faces,P,male,VS,F,64,E07,264.751953125
0,1,0,23142,0.3828125,0.123046875,1,1,8,37,3,930.546630859375,138.849670410156,0,1,faces,female,0,1,objects,P,small,VS,O,65,E07,268.951171875
0,1,0,23143,0.552734375,0.203125,2,1,1,10,4,695.578674316406,130.223403930664,0,1,faces,male,0,1,objects,P,small,VS,O,65,E07,268.951171875
0,1,0,23144,0.79296875,0.18359375,3,1,2,11,5,639.231628417969,218.638687133789,0,1,faces,female,0,1,objects,P,small,VS,O,65,E07,268.951171875
0,1,0,23145,1.01953125,0.240234375,4,1,3,13,6,641.943298339844,434.891357421875,0,1,objects,big,0,1,objects,P,small,VS,O,65,E07,268.951171875
0,1,0,23146,1.287109375,0.158203125,5,0,4,14,7,636.148315429688,564.043334960938,0,1,faces,female,0,1,objects,P,small,VS,O,65,E07,268.951171875
0,1,0,23148,1.69921875,0.16015625,6,0,7,35,9,881.341735839844,828.968872070312,0,1,faces,male,0,1,objects,P,small,VS,O,65,E07,268.951171875
0,1,1,23149,1.896484375,0.201171875,7,0,10,52,10,1098.75708007812,693.126586914062,0,1,objects,big,0,1,objects,P,small,VS,O,65,E07,268.951171875
0,1,0,23167,0.19921875,0.177734375,1,1,4,30,1,825.439392089844,325.994964599609,0,1,faces,male,0,1,objects,A,small,EX,O,66,E07,273.150390625
0,1,0,23168,0.416015625,0.384765625,2,1,6,37,2,949.523071289062,138.60188293457,0,1,objects,small,0,1,objects,A,small,EX,O,66,E07,273.150390625
0,1,0,23170,1.0078125,0.25390625,3,1,15,73,4,1364.05590820312,141.000930786133,0,1,faces,female,0,1,objects,A,small,EX,O,66,E07,273.150390625
0,1,0,23171,1.30859375,0.296875,4,1,10,56,5,1176.2919921875,235.234893798828,0,1,faces,male,0,1,objects,A,small,EX,O,66,E07,273.150390625
0,1,0,23172,1.634765625,0.296875,5,0,13,66,6,1275.37390136719,332.789154052734,0,1,faces,female,0,1,objects,A,small,EX,O,66,E07,273.150390625
0,1,0,23173,1.966796875,0.318359375,6,0,14,67,7,1282.77990722656,427.583862304688,0,1,faces,female,0,1,objects,A,small,EX,O,66,E07,273.150390625
0,1,1,23174,2.32421875,0.388671875,7,0,11,59,8,1165.10180664062,523.0283203125,0,1,objects,small,0,1,objects,A,small,EX,O,66,E07,273.150390625
1,1,1,23176,2.880859375,0.162109375,8,0,12,61,10,1112.98620605469,718.000122070312,0,1,faces,female,0,1,objects,A,small,EX,O,66,E07,273.150390625
2,1,1,23178,3.16015625,0.173828125,9,0,12,61,12,1159.18762207031,700.954956054688,0,1,faces,female,0,1,objects,A,small,EX,O,66,E07,273.150390625
0,1,0,23183,3.9921875,0.59375,10,0,2,13,17,667.568054199219,440.043060302734,0,1,faces,male,0,1,objects,A,small,EX,O,66,E07,273.150390625
0,1,0,23193,0.2578125,0.35546875,1,1,1,2,1,539.734497070312,236.336563110352,0,1,faces,female,0,0,faces,P,male,VS,F,67,E07,277.349609375
0,1,1,23194,0.693359375,0.2578125,2,1,11,64,2,1285.04443359375,129.439727783203,0,1,faces,female,0,0,faces,P,male,VS,F,67,E07,277.349609375
1,1,1,23196,1.158203125,0.216796875,3,1,12,66,4,1288.72607421875,333.598754882812,0,1,faces,male,0,0,faces,P,male,VS,F,67,E07,277.349609375
2,1,0,23199,1.73046875,0.318359375,4,1,12,66,7,1279.21643066406,339.830078125,0,1,faces,male,0,0,faces,P,male,VS,F,67,E07,277.349609375
0,1,0,23200,2.095703125,0.236328125,5,0,13,68,8,1274.11083984375,542.018493652344,0,1,faces,female,0,0,faces,P,male,VS,F,67,E07,277.349609375
0,1,1,23201,2.35546875,0.14453125,6,0,14,69,9,1211.86474609375,592.2724609375,0,1,faces,male,0,0,faces,P,male,VS,F,67,E07,277.349609375
0,1,1,23203,2.71484375,0.265625,7,0,5,42,11,974.952209472656,635.972290039062,0,1,faces,male,0,0,faces,P,male,VS,F,67,E07,277.349609375
1,1,1,23205,3.17578125,0.1875,8,0,8,52,13,1079.99475097656,716.055969238281,0,1,faces,male,0,0,faces,P,male,VS,F,67,E07,277.349609375
0,1,0,23207,3.46484375,0.154296875,9,0,6,44,15,946.499206542969,811.451721191406,0,1,objects,big,0,0,faces,P,male,VS,F,67,E07,277.349609375
2,1,0,23208,3.66015625,0.19140625,10,0,8,52,16,1089.96520996094,709.279418945312,0,1,faces,male,0,0,faces,P,male,VS,F,67,E07,277.349609375
0,1,1,23230,0.1953125,0.123046875,1,1,8,29,1,885.817016601562,285.448455810547,0,1,faces,male,1,1,faces,P,female,VS,I,68,E07,281.548828125
1,1,0,23232,0.541015625,0.126953125,2,1,12,46,3,1026.98364257812,128.873352050781,0,1,faces,female,1,1,faces,P,female,VS,I,68,E07,281.548828125
0,1,0,23233,0.6875,0.140625,3,1,9,37,4,976.279968261719,128.976348876953,0,1,faces,male,1,1,faces,P,female,VS,I,68,E07,281.548828125
2,1,0,23234,0.87109375,0.173828125,4,1,12,46,5,1059.47802734375,128.339324951172,0,1,faces,female,1,1,faces,P,female,VS,I,68,E07,281.548828125
0,1,0,23236,1.26953125,0.169921875,5,0,10,40,7,954.541198730469,432.519714355469,0,1,faces,female,1,1,faces,P,female,VS,I,68,E07,281.548828125
0,1,0,23237,1.486328125,0.16015625,6,0,4,22,8,733.530029296875,436.403625488281,0,1,objects,small,1,1,faces,P,female,VS,I,68,E07,281.548828125
1,0,0,23238,1.69140625,0.302734375,7,0,3,20,9,743.106384277344,230.051086425781,1,0,NaN,NaN,1,1,faces,P,female,VS,I,68,E07,281.548828125
0,0,0,23239,2.044921875,0.259765625,8,0,1,4,10,525.994201660156,458.69384765625,0,1,faces,female,1,1,faces,P,female,VS,I,68,E07,281.548828125
2,0,1,23240,2.34765625,0.181640625,9,0,3,20,11,780.399963378906,262.558380126953,1,0,NaN,NaN,1,1,faces,P,female,VS,I,68,E07,281.548828125
0,0,0,23243,3.44140625,0.158203125,10,0,7,27,14,749.054443359375,918.004638671875,0,1,objects,small,1,1,faces,P,female,VS,I,68,E07,281.548828125
0,0,0,23244,3.62890625,0.17578125,11,0,6,26,15,733.712524414062,870.938354492188,0,1,faces,male,1,1,faces,P,female,VS,I,68,E07,281.548828125
0,1,1,23263,0.240234375,0.111328125,1,1,8,31,1,908.245544433594,421.701293945312,0,1,objects,small,0,1,faces,A,male,VS,I,69,E07,285.748046875
1,1,0,23265,0.578125,0.248046875,2,1,4,19,3,713.920166015625,157.493698120117,0,1,faces,male,0,1,faces,A,male,VS,I,69,E07,285.748046875
0,1,0,23266,0.8671875,0.205078125,3,1,3,11,4,638.658264160156,248.837524414062,0,1,faces,male,0,1,faces,A,male,VS,I,69,E07,285.748046875
0,1,0,23267,1.119140625,0.2265625,4,1,1,1,5,542.074584960938,154.48893737793,0,1,faces,male,0,1,faces,A,male,VS,I,69,E07,285.748046875
0,1,0,23268,1.39453125,0.3359375,5,0,5,21,6,766.375366210938,361.750244140625,0,1,faces,female,0,1,faces,A,male,VS,I,69,E07,285.748046875
2,1,1,23269,1.771484375,0.251953125,6,0,4,19,7,739.827392578125,186.529891967773,0,1,faces,male,0,1,faces,A,male,VS,I,69,E07,285.748046875
0,1,0,23271,2.287109375,0.251953125,7,0,13,59,9,1157.61389160156,521.9384765625,0,1,objects,big,0,1,faces,A,male,VS,I,69,E07,285.748046875
0,1,0,23272,2.5703125,0.318359375,8,0,15,77,10,1351.54443359375,525.25390625,0,1,faces,female,0,1,faces,A,male,VS,I,69,E07,285.748046875
0,1,0,23273,2.939453125,0.2421875,9,0,10,33,11,815.262145996094,669.25341796875,0,1,objects,small,0,1,faces,A,male,VS,I,69,E07,285.748046875
0,1,0,23274,3.205078125,0.275390625,10,0,11,34,12,843.451538085938,758.890930175781,0,1,faces,female,0,1,faces,A,male,VS,I,69,E07,285.748046875
0,1,0,23275,3.509765625,0.279296875,11,0,6,25,13,727.796325683594,753.777282714844,0,1,faces,male,0,1,faces,A,male,VS,I,69,E07,285.748046875
0,1,0,23276,3.826171875,0.302734375,12,0,7,26,14,742.76025390625,856.085693359375,0,1,faces,female,0,1,faces,A,male,VS,I,69,E07,285.748046875
0,1,0,23290,0.22265625,0.166015625,1,1,2,13,1,704.91064453125,462.355987548828,0,1,faces,female,1,1,faces,P,male,VS,I,70,E07,289.947265625
1,0,1,23292,1.9296875,0.619140625,2,1,9,49,3,1067.01135253906,434.696807861328,1,0,NaN,NaN,1,1,faces,P,male,VS,I,70,E07,289.947265625
2,0,1,23294,2.658203125,0.876953125,3,1,9,49,5,1059.296875,438.4248046875,1,0,NaN,NaN,1,1,faces,P,male,VS,I,70,E07,289.947265625
1,1,0,23311,0.404296875,0.185546875,1,1,2,12,2,634.850769042969,326.560211181641,0,1,faces,female,0,1,faces,A,male,EX,F,71,E07,294.146484375
0,1,1,23312,0.6328125,0.146484375,2,1,3,20,3,768.765808105469,252.394195556641,0,1,faces,female,0,1,faces,A,male,EX,F,71,E07,294.146484375
2,1,1,23314,0.931640625,0.13671875,3,1,2,12,5,635.063842773438,360.433319091797,0,1,faces,female,0,1,faces,A,male,EX,F,71,E07,294.146484375
0,1,0,23317,1.6328125,0.236328125,4,1,4,21,8,752.05615234375,340.484802246094,0,1,faces,male,0,1,faces,A,male,EX,F,71,E07,294.146484375
0,1,0,23318,1.90625,0.189453125,5,0,5,22,9,737.985473632812,450.240417480469,0,1,faces,male,0,1,faces,A,male,EX,F,71,E07,294.146484375
0,1,0,23319,2.14453125,0.33203125,6,0,9,50,10,1079.03112792969,539.936645507812,0,1,faces,female,0,1,faces,A,male,EX,F,71,E07,294.146484375
0,1,0,23320,2.5078125,0.212890625,7,0,10,51,11,1083.55456542969,639.600341796875,0,1,objects,big,0,1,faces,A,male,EX,F,71,E07,294.146484375
0,1,0,23321,2.759765625,0.2890625,8,0,13,70,12,1288.3671875,702.919982910156,0,1,faces,male,0,1,faces,A,male,EX,F,71,E07,294.146484375
0,1,0,23322,3.083984375,0.22265625,9,0,14,78,13,1407.13806152344,609.252868652344,0,1,faces,female,0,1,faces,A,male,EX,F,71,E07,294.146484375
0,1,1,23323,3.41015625,0.1328125,10,0,15,81,14,1393.10668945312,898.221252441406,0,1,faces,male,0,1,faces,A,male,EX,F,71,E07,294.146484375
0,1,1,23326,3.81640625,0.203125,11,0,6,27,17,733.264099121094,937.208618164062,0,1,faces,male,0,1,faces,A,male,EX,F,71,E07,294.146484375
1,1,0,23339,0.3828125,0.158203125,1,1,5,31,2,849.828674316406,436.978698730469,0,1,faces,female,1,1,faces,P,male,VS,I,72,E07,298.345703125
0,1,0,23340,0.580078125,0.228515625,2,1,6,37,3,950.584228515625,142.557006835938,0,1,faces,male,1,1,faces,P,male,VS,I,72,E07,298.345703125
0,1,0,23341,0.845703125,0.236328125,3,1,12,64,4,1273.88879394531,140.344284057617,0,1,faces,female,1,1,faces,P,male,VS,I,72,E07,298.345703125
1,1,0,23342,1.119140625,0.1875,4,1,14,75,5,1319.05017089844,327.456329345703,0,1,faces,male,1,1,faces,P,male,VS,I,72,E07,298.345703125
0,1,0,23343,1.326171875,0.15234375,5,0,13,66,6,1284.51794433594,343.141571044922,0,1,faces,female,1,1,faces,P,male,VS,I,72,E07,298.345703125
2,1,0,23344,1.515625,0.20703125,6,0,14,75,7,1370.96215820312,339.798858642578,0,1,faces,male,1,1,faces,P,male,VS,I,72,E07,298.345703125
0,1,0,23345,1.76171875,0.306640625,7,0,15,76,8,1368.9716796875,427.993133544922,0,1,faces,male,1,1,faces,P,male,VS,I,72,E07,298.345703125
0,1,0,23346,2.166015625,0.1484375,8,0,10,58,9,1144.45031738281,422.551879882812,0,1,objects,small,1,1,faces,P,male,VS,I,72,E07,298.345703125
1,1,0,23347,2.349609375,0.197265625,9,0,8,49,10,1067.36694335938,432.818908691406,0,1,faces,female,1,1,faces,P,male,VS,I,72,E07,298.345703125
2,1,0,23348,2.595703125,0.322265625,10,0,5,31,11,850.266784667969,447.001983642578,0,1,faces,female,1,1,faces,P,male,VS,I,72,E07,298.345703125
2,1,0,23349,2.970703125,0.203125,11,0,8,49,12,1092.34558105469,427.552673339844,0,1,faces,female,1,1,faces,P,male,VS,I,72,E07,298.345703125
0,0,0,23350,3.236328125,0.265625,12,0,4,23,13,752.649658203125,564.380554199219,1,0,NaN,NaN,1,1,faces,P,male,VS,I,72,E07,298.345703125
0,0,1,23541,0.54296875,0.2421875,1,1,12,57,3,1160.43579101562,321.802398681641,1,0,NaN,NaN,1,1,objects,P,small,VS,O,73,E07,302.544921875
1,1,0,23552,0.244140625,0.162109375,1,1,5,30,1,818.633728027344,300.972961425781,0,1,faces,male,0,1,objects,A,small,VS,O,74,E07,306.744140625
0,1,0,23553,0.447265625,0.1796875,2,1,4,28,2,823.956420898438,152.810501098633,0,1,objects,small,0,1,objects,A,small,VS,O,74,E07,306.744140625
0,1,0,23554,0.669921875,0.24609375,3,1,3,11,3,645.561706542969,221.184997558594,0,1,objects,small,0,1,objects,A,small,VS,O,74,E07,306.744140625
2,1,0,23555,0.9609375,0.17578125,4,1,5,30,4,818.1337890625,363.847137451172,0,1,faces,male,0,1,objects,A,small,VS,O,74,E07,306.744140625
1,1,0,23559,1.833984375,0.142578125,5,0,8,34,8,828.679016113281,775.121887207031,0,1,faces,female,0,1,objects,A,small,VS,O,74,E07,306.744140625
2,1,0,23562,2.455078125,0.166015625,6,0,8,34,11,848.584289550781,729.923400878906,0,1,faces,female,0,1,objects,A,small,VS,O,74,E07,306.744140625
0,1,0,23563,2.6640625,0.25390625,7,0,14,71,12,1304.96740722656,802.950012207031,0,1,objects,big,0,1,objects,A,small,VS,O,74,E07,306.744140625
0,1,0,23564,2.95703125,0.138671875,8,0,15,79,13,1368.05407714844,712.139892578125,0,1,faces,female,0,1,objects,A,small,VS,O,74,E07,306.744140625
0,1,0,23565,3.130859375,0.19921875,9,0,13,69,14,1258.83947753906,592.088439941406,0,1,faces,female,0,1,objects,A,small,VS,O,74,E07,306.744140625
0,1,0,23566,3.35546875,0.1875,10,0,12,59,15,1165.7451171875,532.810241699219,0,1,faces,female,0,1,objects,A,small,VS,O,74,E07,306.744140625
0,1,0,23567,3.59375,0.259765625,11,0,6,31,16,837.126647949219,465.133117675781,0,1,faces,male,0,1,objects,A,small,VS,O,74,E07,306.744140625
0,1,0,23579,0.2421875,0.15625,1,1,6,30,1,818.540405273438,324.691101074219,0,1,faces,female,0,1,objects,A,big,VS,O,75,E07,310.943359375
0,1,0,23580,0.44921875,0.1484375,2,1,8,37,2,911.399780273438,169.052856445312,0,1,objects,small,0,1,objects,A,big,VS,O,75,E07,310.943359375
1,1,0,23581,0.625,0.158203125,3,1,5,28,3,865.654296875,126.401329040527,0,1,faces,male,0,1,objects,A,big,VS,O,75,E07,310.943359375
0,1,0,23582,0.822265625,0.142578125,4,1,11,55,4,1161.67578125,122.300285339355,0,1,objects,big,0,1,objects,A,big,VS,O,75,E07,310.943359375
0,1,0,23583,1.0078125,0.21484375,5,0,13,73,5,1337.60900878906,136.609191894531,0,1,faces,female,0,1,objects,A,big,VS,O,75,E07,310.943359375
0,1,0,23584,1.2734375,0.22265625,6,0,12,67,6,1278.37768554688,447.899108886719,0,1,objects,big,0,1,objects,A,big,VS,O,75,E07,310.943359375
0,1,1,23586,1.787109375,0.134765625,7,0,9,43,8,985.248840332031,738.2880859375,0,1,objects,small,0,1,objects,A,big,VS,O,75,E07,310.943359375
0,1,0,23588,2.12109375,0.22265625,8,0,4,25,10,750.948669433594,725.617004394531,0,1,faces,male,0,1,objects,A,big,VS,O,75,E07,310.943359375
0,1,0,23589,2.39453125,0.287109375,9,0,2,5,11,514.193054199219,525.332275390625,0,1,objects,big,0,1,objects,A,big,VS,O,75,E07,310.943359375
0,1,0,23592,3.166015625,0.162109375,10,0,15,81,14,1385.33276367188,909.181823730469,0,1,faces,female,0,1,objects,A,big,VS,O,75,E07,310.943359375
0,1,0,23594,3.57421875,0.138671875,11,0,1,1,16,566.959594726562,147.194473266602,0,1,faces,male,0,1,objects,A,big,VS,O,75,E07,310.943359375
2,1,0,23595,3.748046875,0.23828125,12,0,5,28,17,866.283264160156,135.844848632812,0,1,faces,male,0,1,objects,A,big,VS,O,75,E07,310.943359375
0,0,0,23608,0.205078125,0.2265625,1,1,9,34,2,861.132934570312,693.101989746094,1,0,NaN,NaN,1,0,faces,P,female,VS,F,76,E07,315.142578125
1,0,0,23610,0.626953125,0.19921875,2,1,6,23,4,755.049194335938,550.998413085938,0,1,faces,male,1,0,faces,P,female,VS,F,76,E07,315.142578125
0,0,0,23611,0.865234375,0.134765625,3,1,8,33,5,834.210998535156,621.961791992188,0,1,faces,female,1,0,faces,P,female,VS,F,76,E07,315.142578125
2,0,0,23612,1.029296875,0.203125,4,1,6,23,6,732.310852050781,539.309143066406,0,1,faces,male,1,0,faces,P,female,VS,F,76,E07,315.142578125
0,0,0,23614,1.607421875,0.2421875,5,0,7,27,8,712.700378417969,962.799438476562,0,1,faces,female,1,0,faces,P,female,VS,F,76,E07,315.142578125
0,0,1,23618,2.33203125,0.22265625,6,0,14,76,12,1347.93957519531,490.282745361328,0,1,faces,male,1,0,faces,P,female,VS,F,76,E07,315.142578125
0,0,0,23620,2.8046875,0.24609375,7,0,13,73,14,1335.64404296875,164.040451049805,0,1,faces,male,1,0,faces,P,female,VS,F,76,E07,315.142578125
0,0,0,23622,3.359375,0.240234375,8,0,3,10,16,647.230712890625,148.689239501953,0,1,faces,male,1,0,faces,P,female,VS,F,76,E07,315.142578125
3,0,1,23624,3.716796875,0.115234375,9,0,6,23,18,741.758422851562,514.190307617188,0,1,faces,male,1,0,faces,P,female,VS,F,76,E07,315.142578125
0,1,0,23636,0.3515625,0.19921875,1,1,11,66,2,1264.85998535156,329.977142333984,0,1,faces,male,0,1,faces,A,female,VS,I,77,E07,319.341796875
0,1,0,23637,0.576171875,0.25390625,2,1,14,76,3,1346.14123535156,422.222229003906,0,1,faces,female,0,1,faces,A,female,VS,I,77,E07,319.341796875
0,1,0,23638,0.85546875,0.126953125,3,1,12,68,4,1267.06494140625,504.233703613281,0,1,objects,small,0,1,faces,A,female,VS,I,77,E07,319.341796875
0,1,1,23639,1.048828125,0.189453125,4,1,5,31,5,861.479370117188,438.303009033203,0,1,faces,female,0,1,faces,A,female,VS,I,77,E07,319.341796875
0,1,0,23641,1.45703125,0.3203125,5,0,3,13,7,638.1630859375,445.491088867188,0,1,faces,male,0,1,faces,A,female,VS,I,77,E07,319.341796875
0,1,0,23643,2.0703125,0.228515625,6,0,2,6,9,522.820434570312,652.851501464844,0,1,faces,female,0,1,faces,A,female,VS,I,77,E07,319.341796875
0,1,0,23644,2.3359375,0.208984375,7,0,6,33,10,816.401733398438,625.455383300781,0,1,faces,male,0,1,faces,A,female,VS,I,77,E07,319.341796875
0,1,0,23645,2.59375,0.22265625,8,0,4,17,11,614.487121582031,869.583068847656,0,1,faces,male,0,1,faces,A,female,VS,I,77,E07,319.341796875
0,1,0,23646,2.853515625,0.2265625,9,0,8,45,12,943.886901855469,907.699768066406,0,1,faces,male,0,1,faces,A,female,VS,I,77,E07,319.341796875
0,1,1,23648,3.4296875,0.12890625,10,0,15,81,14,1336.27734375,898.89990234375,0,1,faces,female,0,1,faces,A,female,VS,I,77,E07,319.341796875
0,1,0,23650,3.779296875,0.24609375,11,0,10,63,16,1172.02392578125,890.528930664062,0,1,faces,female,0,1,faces,A,female,VS,I,77,E07,319.341796875
0,1,1,23667,0.232421875,0.13671875,1,1,1,1,1,577.433776855469,145.273025512695,0,1,faces,female,0,1,faces,A,female,EX,F,78,E07,323.541015625
0,1,0,23669,0.572265625,0.236328125,2,1,3,10,3,637.298156738281,133.728958129883,0,1,faces,female,0,1,faces,A,female,EX,F,78,E07,323.541015625
0,1,0,23670,0.84375,0.25,3,1,7,38,4,932.169555664062,202.323516845703,0,1,objects,big,0,1,faces,A,female,EX,F,78,E07,323.541015625
0,1,0,23671,1.123046875,0.29296875,4,1,8,48,5,1036.00231933594,333.444793701172,0,1,faces,male,0,1,faces,A,female,EX,F,78,E07,323.541015625
0,1,1,23672,1.45703125,0.123046875,5,0,9,49,6,1101.92712402344,431.984069824219,0,1,faces,male,0,1,faces,A,female,EX,F,78,E07,323.541015625
0,1,1,23674,1.8046875,0.1015625,6,0,12,58,8,1162.53845214844,420.552947998047,0,1,faces,female,0,1,faces,A,female,EX,F,78,E07,323.541015625
0,1,0,23677,2.255859375,0.1640625,7,0,13,60,11,1162.85949707031,605.515625,0,1,faces,female,0,1,faces,A,female,EX,F,78,E07,323.541015625
0,1,0,23678,2.453125,0.2890625,8,0,14,68,12,1266.87084960938,508.251007080078,0,1,faces,male,0,1,faces,A,female,EX,F,78,E07,323.541015625
0,1,0,23679,2.88671875,0.1640625,9,0,15,71,13,1261.73767089844,800.554565429688,0,1,objects,small,0,1,faces,A,female,EX,F,78,E07,323.541015625
0,1,0,23683,3.48828125,0.18359375,10,0,2,6,17,547.007385253906,640.264343261719,0,1,faces,male,0,1,faces,A,female,EX,F,78,E07,323.541015625
1,1,0,23699,0.203125,0.208984375,1,1,7,29,2,824.666809082031,190.825622558594,0,1,faces,male,1,1,objects,P,small,VS,O,79,E07,327.740234375
0,1,0,23700,0.44921875,0.181640625,2,1,3,20,3,733.92236328125,246.548095703125,0,1,objects,small,1,1,objects,P,small,VS,O,79,E07,327.740234375
2,1,0,23701,0.669921875,0.173828125,3,1,7,29,4,842.668212890625,233.414764404297,0,1,faces,male,1,1,objects,P,small,VS,O,79,E07,327.740234375
0,1,0,23702,0.873046875,0.18359375,4,1,6,28,5,812.968017578125,140.359451293945,0,1,faces,male,1,1,objects,P,small,VS,O,79,E07,327.740234375
0,1,0,23703,1.091796875,0.21484375,5,0,2,19,6,732.513977050781,147.448379516602,0,1,faces,male,1,1,objects,P,small,VS,O,79,E07,327.740234375
0,1,0,23704,1.35546875,0.177734375,6,0,4,21,7,779.187927246094,328.68359375,0,1,faces,female,1,1,objects,P,small,VS,O,79,E07,327.740234375
0,1,0,23705,1.572265625,0.2265625,7,0,10,57,8,1116.07849121094,358.499542236328,0,1,faces,female,1,1,objects,P,small,VS,O,79,E07,327.740234375
0,1,0,23706,1.845703125,0.154296875,8,0,14,66,9,1256.94506835938,338.087677001953,0,1,objects,big,1,1,objects,P,small,VS,O,79,E07,327.740234375
0,1,1,23707,2.060546875,0.1171875,9,0,9,49,10,1108.09020996094,445.055145263672,0,1,faces,male,1,1,objects,P,small,VS,O,79,E07,327.740234375
0,1,0,23709,2.34375,0.140625,10,0,12,59,12,1150.91979980469,527.604187011719,0,1,objects,big,1,1,objects,P,small,VS,O,79,E07,327.740234375
0,0,0,23710,2.552734375,0.306640625,11,0,5,25,13,712.153259277344,780.408447265625,1,0,NaN,NaN,1,1,objects,P,small,VS,O,79,E07,327.740234375
1,1,0,23723,0.33984375,0.232421875,1,1,8,37,2,968.707397460938,174.433319091797,0,1,objects,small,1,1,objects,P,big,VS,O,80,E07,331.939453125
1,1,1,23724,0.6328125,0.185546875,2,1,6,21,3,730.770080566406,316.699493408203,1,0,NaN,NaN,1,1,objects,P,big,VS,O,80,E07,331.939453125
2,0,1,23728,2.869140625,0.146484375,3,1,8,37,7,926.908752441406,190.305084228516,0,1,objects,small,1,1,objects,P,big,VS,O,80,E07,331.939453125
2,0,0,23730,3.2578125,0.40625,4,1,6,21,9,740.44140625,360.882263183594,1,0,NaN,NaN,1,1,objects,P,big,VS,O,80,E07,331.939453125
1,1,1,23739,0.3984375,0.1796875,1,1,8,38,2,982.14697265625,239.705368041992,0,1,faces,male,0,1,faces,A,female,EX,I,81,E07,336.138671875
0,1,0,23741,0.9140625,0.294921875,2,1,5,20,4,738.034118652344,249.1220703125,0,1,faces,female,0,1,faces,A,female,EX,I,81,E07,336.138671875
0,1,0,23742,1.24609375,0.279296875,3,1,6,30,5,862.324890136719,345.215637207031,0,1,objects,small,0,1,faces,A,female,EX,I,81,E07,336.138671875
2,1,0,23743,1.552734375,0.32421875,4,1,8,38,6,953.014709472656,253.38020324707,0,1,faces,male,0,1,faces,A,female,EX,I,81,E07,336.138671875
0,1,0,23744,1.923828125,0.224609375,5,0,11,56,7,1162.4482421875,247.290969848633,0,1,objects,big,0,1,faces,A,female,EX,I,81,E07,336.138671875
0,1,0,23745,2.177734375,0.3671875,6,0,14,74,8,1353.23425292969,244.368438720703,0,1,faces,male,0,1,faces,A,female,EX,I,81,E07,336.138671875
0,1,0,23746,2.6015625,0.416015625,7,0,12,58,9,1154.12414550781,452.522338867188,0,1,objects,big,0,1,faces,A,female,EX,I,81,E07,336.138671875
0,1,0,23747,3.056640625,0.2734375,8,0,9,51,10,1067.66357421875,644.419799804688,0,1,faces,female,0,1,faces,A,female,EX,I,81,E07,336.138671875
0,1,0,23748,3.357421875,0.15625,9,0,13,60,11,1177.27954101562,642.130615234375,0,1,faces,female,0,1,faces,A,female,EX,I,81,E07,336.138671875
0,1,0,23749,3.556640625,0.255859375,10,0,10,53,12,1049.09069824219,825.501708984375,0,1,objects,big,0,1,faces,A,female,EX,I,81,E07,336.138671875
0,1,0,23766,0.1953125,0.1484375,1,1,9,50,1,1033.22778320312,534.896362304688,0,1,faces,female,1,1,faces,P,female,VS,F,82,E07,340.337890625
0,1,0,23767,0.44140625,0.138671875,2,1,12,57,2,1115.76953125,363.425109863281,0,1,faces,male,1,1,faces,P,female,VS,F,82,E07,340.337890625
0,1,0,23768,0.6171875,0.29296875,3,1,8,48,3,1044.0048828125,336.518859863281,0,1,faces,female,1,1,faces,P,female,VS,F,82,E07,340.337890625
0,1,0,23769,0.94921875,0.154296875,4,1,13,58,4,1181.62524414062,449.708282470703,0,1,faces,male,1,1,faces,P,female,VS,F,82,E07,340.337890625
0,1,1,23770,1.173828125,0.103515625,5,0,3,20,5,808.74658203125,255.699157714844,0,1,faces,male,1,1,faces,P,female,VS,F,82,E07,340.337890625
0,1,1,23772,1.580078125,0.25,6,0,4,23,7,736.925476074219,574.225219726562,0,1,faces,male,1,1,faces,P,female,VS,F,82,E07,340.337890625
0,1,1,23774,2.04296875,0.15234375,7,0,1,8,9,510.643524169922,881.302795410156,0,1,faces,female,1,1,faces,P,female,VS,F,82,E07,340.337890625
0,1,0,23776,2.318359375,0.126953125,8,0,2,9,11,514.988403320312,968.44091796875,0,1,objects,big,1,1,faces,P,female,VS,F,82,E07,340.337890625
0,1,0,23777,2.486328125,0.208984375,9,0,6,45,12,952.461791992188,921.647033691406,0,1,objects,small,1,1,faces,P,female,VS,F,82,E07,340.337890625
0,1,0,23778,2.720703125,0.2734375,10,0,11,54,13,1070.00646972656,915.141418457031,0,1,faces,female,1,1,faces,P,female,VS,F,82,E07,340.337890625
0,1,0,23779,3.080078125,0.19140625,11,0,15,79,14,1379.22644042969,713.540649414062,0,1,faces,male,1,1,faces,P,female,VS,F,82,E07,340.337890625
0,1,1,23780,3.330078125,0.197265625,12,0,14,61,15,1124.07861328125,721.470153808594,1,0,NaN,NaN,1,1,faces,P,female,VS,F,82,E07,340.337890625
0,1,0,23796,0.19140625,0.154296875,1,1,7,28,1,815.505920410156,138.762008666992,0,1,faces,female,0,1,faces,A,male,VS,I,83,E07,344.537109375
0,1,0,23797,0.369140625,0.267578125,2,1,5,19,2,751.6181640625,145.832565307617,0,1,faces,female,0,1,faces,A,male,VS,I,83,E07,344.537109375
0,1,1,23798,1.58984375,0.14453125,3,1,3,13,3,678.706726074219,454.824737548828,0,1,faces,female,0,1,faces,A,male,VS,I,83,E07,344.537109375
0,1,1,23801,2.185546875,0.1328125,4,1,6,24,6,736.521667480469,673.456970214844,0,1,faces,female,0,1,faces,A,male,VS,I,83,E07,344.537109375
0,1,0,23802,2.37109375,0.203125,5,0,10,52,7,1050.92736816406,753.061767578125,0,1,faces,male,0,1,faces,A,male,VS,I,83,E07,344.537109375
0,1,0,23803,2.59765625,0.1640625,6,0,11,53,8,1074.7685546875,816.740234375,0,1,objects,big,0,1,faces,A,male,VS,I,83,E07,344.537109375
0,1,0,23804,2.794921875,0.1796875,7,0,13,71,9,1297.94299316406,801.893859863281,0,1,objects,big,0,1,faces,A,male,VS,I,83,E07,344.537109375
0,1,0,23805,3.044921875,0.103515625,8,0,4,18,10,613.899780273438,966.446960449219,0,1,faces,female,0,1,faces,A,male,VS,I,83,E07,344.537109375
0,1,0,23807,3.30859375,0.15625,9,0,12,54,12,1107.400390625,934.066223144531,0,1,faces,male,0,1,faces,A,male,VS,I,83,E07,344.537109375
0,1,0,23809,3.73046875,0.16796875,10,0,14,74,14,1367.61853027344,242.960418701172,0,1,faces,male,0,1,faces,A,male,VS,I,83,E07,344.537109375
0,1,0,23810,3.92578125,0.162109375,11,0,15,75,15,1391.24609375,355.211517333984,0,1,faces,male,0,1,faces,A,male,VS,I,83,E07,344.537109375
0,1,0,23826,0.416015625,0.1171875,1,1,2,22,3,748.924255371094,429.890594482422,0,1,objects,big,0,1,objects,A,small,EX,O,84,E07,348.736328125
0,1,1,23827,0.6015625,0.2265625,2,1,10,57,4,1148.91748046875,362.089660644531,0,1,faces,male,0,1,objects,A,small,EX,O,84,E07,348.736328125
0,1,1,23829,1.05859375,0.19140625,3,1,12,67,6,1241.68994140625,421.323486328125,0,1,objects,small,0,1,objects,A,small,EX,O,84,E07,348.736328125
0,1,0,23831,1.421875,0.220703125,4,1,11,58,8,1139.36767578125,424.257263183594,0,1,faces,male,0,1,objects,A,small,EX,O,84,E07,348.736328125
0,1,0,23832,1.677734375,0.146484375,5,0,8,49,9,1046.80651855469,421.324127197266,0,1,faces,female,0,1,objects,A,small,EX,O,84,E07,348.736328125
0,1,0,23833,1.86328125,0.248046875,6,0,14,74,10,1372.93420410156,248.736679077148,0,1,faces,male,0,1,objects,A,small,EX,O,84,E07,348.736328125
0,1,1,23834,2.181640625,0.1953125,7,0,6,42,11,930.823669433594,623.278564453125,0,1,faces,female,0,1,objects,A,small,EX,O,84,E07,348.736328125
0,1,1,23838,2.896484375,0.12109375,8,0,1,7,15,512.097473144531,757.928100585938,0,1,faces,female,0,1,objects,A,small,EX,O,84,E07,348.736328125
0,1,0,23839,3.05859375,0.197265625,9,0,4,27,16,797.537719726562,955.091796875,0,1,objects,small,0,1,objects,A,small,EX,O,84,E07,348.736328125
0,1,0,23840,3.27734375,0.115234375,10,0,5,36,17,850.691589355469,936.05126953125,0,1,faces,female,0,1,objects,A,small,EX,O,84,E07,348.736328125
