refix,pretarget,multifix,urevent,tonset,dur_added,rank,first_rank,stposrel,stposabs,n,x,y,istarget,isdistractor,distractor_cat,ditractor_atr,trial_targetseen,trial_correct,trial_cat,trial_resp,trial_atr,trial_type,trial_cattype,trial_number,trial_subject,trial_bgn_latency
1,1,1,19742,0.521484375,0.125,1,1,10,37,3,1007.35479736328,170.978500366211,0,1,faces,female,0,0,faces,A,female,VS,I,1,E10,0.201171875
0,1,0,19744,0.81640625,0.220703125,2,1,12,46,5,1072.77478027344,185.667037963867,0,1,faces,female,0,0,faces,A,female,VS,I,1,E10,0.201171875
2,1,1,19745,1.068359375,0.15625,3,1,10,37,6,952.397277832031,187.124877929688,0,1,faces,female,0,0,faces,A,female,VS,I,1,E10,0.201171875
0,1,0,19747,2.197265625,0.11328125,4,1,4,13,8,629.161743164062,458.816925048828,0,1,objects,big,0,0,faces,A,female,VS,I,1,E10,0.201171875
0,1,0,19748,2.333984375,0.125,5,0,2,4,9,569.171508789062,462.754119873047,0,1,objects,small,0,0,faces,A,female,VS,I,1,E10,0.201171875
1,1,0,19749,2.498046875,0.29296875,6,0,5,14,10,658.894165039062,569.521118164062,0,1,faces,female,0,0,faces,A,female,VS,I,1,E10,0.201171875
0,1,0,19750,2.81640625,0.146484375,7,0,6,15,11,672.174499511719,645.363708496094,0,1,faces,male,0,0,faces,A,female,VS,I,1,E10,0.201171875
2,1,1,19751,2.998046875,0.1796875,8,0,5,14,12,674.385864257812,561.439453125,0,1,faces,female,0,0,faces,A,female,VS,I,1,E10,0.201171875
1,1,1,19759,0.255859375,0.119140625,1,1,6,42,1,963.393981933594,607.668151855469,0,1,faces,female,1,1,objects,P,big,VS,O,2,E10,4.400390625
0,1,0,19761,0.552734375,0.130859375,2,1,9,52,3,1077.54748535156,762.139587402344,0,1,faces,female,1,1,objects,P,big,VS,O,2,E10,4.400390625
0,1,0,19763,0.974609375,0.16796875,3,1,14,76,5,1322.546875,397.813598632812,0,1,faces,male,1,1,objects,P,big,VS,O,2,E10,4.400390625
0,0,1,19765,1.283203125,0.345703125,4,1,11,58,7,1164.68896484375,460.311431884766,1,0,NaN,NaN,1,1,objects,P,big,VS,O,2,E10,4.400390625
0,0,0,19768,2.470703125,0.154296875,5,0,4,39,10,956.437194824219,361.350372314453,0,1,faces,female,1,1,objects,P,big,VS,O,2,E10,4.400390625
0,0,0,19769,2.673828125,0.1796875,6,0,2,10,11,678.989074707031,172.955963134766,0,1,faces,male,1,1,objects,P,big,VS,O,2,E10,4.400390625
0,0,0,19770,2.91796875,0.23828125,7,0,1,5,12,563.78662109375,564.663513183594,0,1,objects,big,1,1,objects,P,big,VS,O,2,E10,4.400390625
2,0,0,19771,3.208984375,0.298828125,8,0,6,42,13,970.914245605469,673.8447265625,0,1,faces,female,1,1,objects,P,big,VS,O,2,E10,4.400390625
0,0,0,19772,3.533203125,0.142578125,9,0,7,43,14,992.126159667969,763.346862792969,0,1,faces,female,1,1,objects,P,big,VS,O,2,E10,4.400390625
0,0,0,19773,3.732421875,0.2265625,10,0,3,25,15,746.482849121094,762.072204589844,0,1,objects,small,1,1,objects,P,big,VS,O,2,E10,4.400390625
0,1,1,19784,0.259765625,0.14453125,1,1,8,34,2,858.138488769531,721.00634765625,0,1,faces,female,0,1,faces,A,female,EX,F,3,E10,8.599609375
0,1,0,19786,0.578125,0.2421875,2,1,1,4,4,573.11328125,442.813049316406,0,1,objects,small,0,1,faces,A,female,EX,F,3,E10,8.599609375
1,1,0,19787,0.884765625,0.2421875,3,1,3,10,5,685.420837402344,153.442886352539,0,1,faces,male,0,1,faces,A,female,EX,F,3,E10,8.599609375
1,1,0,19788,1.1640625,0.35546875,4,1,7,28,6,889.842529296875,160.756805419922,0,1,faces,female,0,1,faces,A,female,EX,F,3,E10,8.599609375
2,1,0,19789,1.56640625,0.17578125,5,0,3,10,7,695.6953125,172.604080200195,0,1,faces,male,0,1,faces,A,female,EX,F,3,E10,8.599609375
2,1,1,19790,1.775390625,0.220703125,6,0,7,28,8,898.201965332031,155.648956298828,0,1,faces,female,0,1,faces,A,female,EX,F,3,E10,8.599609375
0,1,1,19792,2.30859375,0.15625,7,0,10,56,10,1168.98132324219,277.301940917969,0,1,faces,male,0,1,faces,A,female,EX,F,3,E10,8.599609375
0,1,0,19794,2.912109375,0.6796875,8,0,13,74,12,1364.05114746094,284.485656738281,0,1,faces,female,0,1,faces,A,female,EX,F,3,E10,8.599609375
0,1,0,19796,3.728515625,0.189453125,9,0,14,76,14,1384.90075683594,441.601959228516,0,1,objects,big,0,1,faces,A,female,EX,F,3,E10,8.599609375
0,1,0,19813,0.654296875,0.203125,1,1,11,57,4,1145.67724609375,353.462249755859,0,1,faces,female,1,1,objects,P,small,VS,O,4,E10,12.798828125
0,1,0,19814,0.884765625,0.302734375,2,1,8,47,5,1104.60803222656,278.863098144531,0,1,objects,big,1,1,objects,P,small,VS,O,4,E10,12.798828125
1,0,0,19817,1.68359375,0.25,3,1,5,39,8,978.603576660156,358.080108642578,1,0,NaN,NaN,1,1,objects,P,small,VS,O,4,E10,12.798828125
0,0,0,19818,3.013671875,0.197265625,4,1,10,56,9,1190.94213867188,226.030807495117,0,1,objects,small,1,1,objects,P,small,VS,O,4,E10,12.798828125
0,0,0,19819,3.2421875,0.169921875,5,0,14,64,10,1211.26342773438,174.951919555664,0,1,faces,female,1,1,objects,P,small,VS,O,4,E10,12.798828125
2,0,1,19821,3.62109375,0.341796875,6,0,5,39,12,971.692932128906,369.654144287109,1,0,NaN,NaN,1,1,objects,P,small,VS,O,4,E10,12.798828125
0,1,1,19835,0.3046875,0.205078125,1,1,2,13,2,670.894348144531,474.116271972656,0,1,objects,small,0,1,faces,A,male,EX,F,5,E10,16.998046875
0,1,1,19837,0.796875,0.181640625,2,1,4,22,4,768.230529785156,449.510528564453,0,1,faces,male,0,1,faces,A,male,EX,F,5,E10,16.998046875
0,1,0,19839,1.1953125,0.421875,3,1,1,12,6,675.40380859375,364.924102783203,0,1,faces,female,0,1,faces,A,male,EX,F,5,E10,16.998046875
1,1,1,19840,1.658203125,0.189453125,4,1,7,29,7,836.410034179688,213.760833740234,0,1,faces,male,0,1,faces,A,male,EX,F,5,E10,16.998046875
0,1,1,19842,2.009765625,0.1328125,5,0,9,38,9,930.115234375,256.803466796875,0,1,objects,small,0,1,faces,A,male,EX,F,5,E10,16.998046875
2,1,0,19844,2.48046875,0.201171875,6,0,7,29,11,881.831970214844,278.798645019531,0,1,faces,male,0,1,faces,A,male,EX,F,5,E10,16.998046875
0,1,1,19845,2.71875,0.138671875,7,0,10,40,12,997.858520507812,415.349822998047,0,1,faces,male,0,1,faces,A,male,EX,F,5,E10,16.998046875
0,1,1,19847,3.169921875,0.1796875,8,0,12,68,14,1263.17456054688,562.681945800781,0,1,faces,male,0,1,faces,A,male,EX,F,5,E10,16.998046875
0,1,0,19849,3.525390625,0.15625,9,0,13,69,16,1279.62585449219,661.53466796875,0,1,objects,small,0,1,faces,A,male,EX,F,5,E10,16.998046875
0,1,0,19851,3.9296875,0.177734375,10,0,14,73,18,1379.5361328125,162.696868896484,0,1,faces,female,0,1,faces,A,male,EX,F,5,E10,16.998046875
0,1,0,19865,0.26171875,0.20703125,1,1,9,48,1,1061.15759277344,374.208557128906,0,1,faces,male,1,1,faces,P,male,VS,I,6,E10,21.197265625
0,1,1,19866,0.51171875,0.138671875,2,1,10,52,2,1042.84191894531,744.954895019531,0,1,faces,female,1,1,faces,P,male,VS,I,6,E10,21.197265625
0,1,1,19868,0.880859375,0.19140625,3,1,11,53,4,1065.01525878906,851.117492675781,0,1,faces,male,1,1,faces,P,male,VS,I,6,E10,21.197265625
0,1,1,19870,1.212890625,0.130859375,4,1,13,67,6,1300.96032714844,481.426330566406,0,1,faces,female,1,1,faces,P,male,VS,I,6,E10,21.197265625
0,0,0,19873,1.876953125,0.236328125,5,0,12,56,9,1169.99401855469,286.354736328125,1,0,NaN,NaN,1,1,faces,P,male,VS,I,6,E10,21.197265625
0,1,0,19885,0.25390625,0.140625,1,1,9,42,1,992.818908691406,619.210876464844,0,1,faces,female,1,1,objects,P,big,VS,O,7,E10,25.396484375
0,1,0,19886,0.42578125,0.12890625,2,1,8,34,2,897.037475585938,718.3017578125,0,1,faces,male,1,1,objects,P,big,VS,O,7,E10,25.396484375
1,1,1,19887,0.60546875,0.275390625,3,1,12,71,3,1298.1865234375,824.974243164062,0,1,objects,small,1,1,objects,P,big,VS,O,7,E10,25.396484375
2,1,1,19889,1.021484375,0.232421875,4,1,12,71,5,1289.5029296875,812.887145996094,0,1,objects,small,1,1,objects,P,big,VS,O,7,E10,25.396484375
0,1,0,19890,1.283203125,0.109375,5,0,13,72,6,1303.92895507812,922.141296386719,0,1,faces,male,1,1,objects,P,big,VS,O,7,E10,25.396484375
0,1,0,19891,1.46484375,0.173828125,6,0,5,13,7,651.163024902344,410.320190429688,0,1,faces,female,1,1,objects,P,big,VS,O,7,E10,25.396484375
0,1,0,19892,1.67578125,0.107421875,7,0,3,4,8,573.594055175781,417.136932373047,0,1,objects,big,1,1,objects,P,big,VS,O,7,E10,25.396484375
0,1,1,19894,1.955078125,0.107421875,8,0,7,29,10,850.428039550781,265.207183837891,1,0,NaN,NaN,1,1,objects,P,big,VS,O,7,E10,25.396484375
0,1,0,19902,0.283203125,0.2265625,1,1,15,79,1,1313.53784179688,741.340515136719,0,1,objects,small,0,1,faces,P,male,VS,F,8,E10,29.595703125
0,1,0,19903,0.6015625,0.103515625,2,1,12,63,2,1174.28552246094,956.106079101562,0,1,faces,male,0,1,faces,P,male,VS,F,8,E10,29.595703125
0,1,1,19905,2.8125,0.14453125,3,1,8,38,4,946.187683105469,255.076675415039,0,1,faces,male,0,1,faces,P,male,VS,F,8,E10,29.595703125
0,1,0,19908,3.505859375,0.21875,4,1,5,31,7,869.737121582031,480.967742919922,0,1,faces,male,0,1,faces,P,male,VS,F,8,E10,29.595703125
0,1,0,19909,3.794921875,0.109375,5,0,1,8,8,592.765747070312,820.553588867188,0,1,faces,female,0,1,faces,P,male,VS,F,8,E10,29.595703125
0,1,0,19918,0.333984375,0.53125,1,1,9,59,1,1169.3388671875,567.632446289062,0,1,objects,big,0,1,faces,A,male,EX,I,9,E10,33.794921875
0,1,1,19919,0.890625,0.138671875,2,1,12,68,2,1212.71801757812,557.304138183594,0,1,objects,big,0,1,faces,A,male,EX,I,9,E10,33.794921875
0,1,1,19921,1.24609375,0.181640625,3,1,15,78,4,1379.20080566406,683.933288574219,0,1,faces,male,0,1,faces,A,male,EX,I,9,E10,33.794921875
0,1,1,19923,1.572265625,0.166015625,4,1,13,70,6,1254.94921875,760.473327636719,0,1,faces,female,0,1,faces,A,male,EX,I,9,E10,33.794921875
0,1,1,19925,2.021484375,0.111328125,5,0,6,35,8,882.55029296875,870.246276855469,0,1,faces,female,0,1,faces,A,male,EX,I,9,E10,33.794921875
0,1,0,19927,2.3671875,0.166015625,6,0,3,6,10,571.812194824219,605.33251953125,0,1,faces,male,0,1,faces,A,male,EX,I,9,E10,33.794921875
0,1,0,19928,2.5546875,0.125,7,0,2,5,11,570.731018066406,582.822875976562,0,1,objects,small,0,1,faces,A,male,EX,I,9,E10,33.794921875
0,1,0,19929,2.712890625,0.396484375,8,0,5,14,12,662.979614257812,574.556091308594,0,1,faces,male,0,1,faces,A,male,EX,I,9,E10,33.794921875
0,1,0,19931,3.302734375,0.263671875,9,0,4,11,14,678.565185546875,274.745544433594,0,1,faces,female,0,1,faces,A,male,EX,I,9,E10,33.794921875
0,1,0,19932,3.59375,0.37109375,10,0,1,2,15,573.398376464844,284.312316894531,0,1,faces,male,0,1,faces,A,male,EX,I,9,E10,33.794921875
0,1,0,19944,0.330078125,0.2265625,1,1,13,61,2,1200.86499023438,777.751892089844,0,1,faces,female,0,1,faces,A,male,VS,I,10,E10,37.994140625
0,1,1,19946,0.763671875,0.12890625,2,1,10,43,4,962.239074707031,777.885498046875,0,1,faces,male,0,1,faces,A,male,VS,I,10,E10,37.994140625
0,1,1,19949,1.271484375,0.19140625,3,1,3,9,7,571.163635253906,967.259887695312,0,1,faces,female,0,1,faces,A,male,VS,I,10,E10,37.994140625
0,1,0,19952,1.818359375,0.232421875,4,1,2,8,10,584.728149414062,875.961120605469,0,1,faces,male,0,1,faces,A,male,VS,I,10,E10,37.994140625
0,1,0,19953,2.080078125,0.181640625,5,0,1,7,11,570.159790039062,772.534301757812,0,1,faces,male,0,1,faces,A,male,VS,I,10,E10,37.994140625
0,1,0,19954,2.291015625,0.267578125,6,0,6,15,12,675.438903808594,653.496887207031,0,1,objects,big,0,1,faces,A,male,VS,I,10,E10,37.994140625
0,1,1,19956,2.697265625,0.123046875,7,0,9,31,14,826.561096191406,486.666625976562,0,1,faces,male,0,1,faces,A,male,VS,I,10,E10,37.994140625
0,1,0,19961,3.6875,0.203125,8,0,14,67,19,1287.90539550781,474.685577392578,0,1,faces,female,0,1,faces,A,male,VS,I,10,E10,37.994140625
0,1,0,19974,0.3515625,0.12890625,1,1,10,57,2,1184.91979980469,390.005401611328,0,1,faces,male,1,1,faces,P,female,VS,I,11,E10,42.193359375
0,1,0,19975,0.544921875,0.193359375,2,1,13,69,3,1308.90014648438,686.369934082031,0,1,faces,female,1,1,faces,P,female,VS,I,11,E10,42.193359375
0,1,0,19976,0.796875,0.203125,3,1,15,80,4,1347.75610351562,855.789184570312,0,1,faces,male,1,1,faces,P,female,VS,I,11,E10,42.193359375
0,1,1,19978,1.33203125,0.166015625,4,1,1,14,6,663.691589355469,584.045288085938,1,0,NaN,NaN,1,1,faces,P,female,VS,I,11,E10,42.193359375
0,1,1,19988,0.6328125,0.208984375,1,1,5,21,2,758.701354980469,362.082977294922,0,1,objects,big,0,1,objects,A,big,VS,O,12,E10,46.392578125
0,1,1,19993,1.671875,0.23046875,2,1,8,27,7,778.706909179688,920.110046386719,0,1,faces,male,0,1,objects,A,big,VS,O,12,E10,46.392578125
0,1,0,19997,2.4140625,0.12109375,3,1,13,49,11,1058.91589355469,467.874450683594,0,1,faces,male,0,1,objects,A,big,VS,O,12,E10,46.392578125
0,1,0,19998,2.578125,0.162109375,4,1,12,47,12,1088.45104980469,274.823150634766,0,1,objects,small,0,1,objects,A,big,VS,O,12,E10,46.392578125
0,1,0,20002,3.578125,0.20703125,5,0,3,5,16,594.281494140625,539.48974609375,0,1,objects,big,0,1,objects,A,big,VS,O,12,E10,46.392578125
0,1,0,20021,0.521484375,0.13671875,1,1,14,70,3,1302.61743164062,719.927978515625,0,1,faces,male,0,1,faces,P,female,VS,I,13,E10,50.591796875
0,1,1,20024,1.068359375,0.212890625,2,1,10,45,6,912.690246582031,988.897644042969,0,1,faces,male,0,1,faces,P,female,VS,I,13,E10,50.591796875
0,1,0,20028,1.984375,0.154296875,3,1,5,22,10,711.952453613281,429.469604492188,0,1,faces,male,0,1,faces,P,female,VS,I,13,E10,50.591796875
1,1,0,20042,0.412109375,0.17578125,1,1,12,62,2,1189.95458984375,869.453308105469,0,1,faces,female,0,1,objects,A,small,VS,O,14,E10,54.791015625
1,1,0,20043,0.63671875,0.11328125,2,1,15,79,3,1394.46374511719,716.958312988281,0,1,objects,small,0,1,objects,A,small,VS,O,14,E10,54.791015625
1,1,0,20044,0.779296875,0.158203125,3,1,14,77,4,1396.03698730469,545.909423828125,0,1,faces,male,0,1,objects,A,small,VS,O,14,E10,54.791015625
0,1,1,20047,1.3671875,0.20703125,4,1,8,38,7,991.27197265625,289.646942138672,0,1,objects,big,0,1,objects,A,small,VS,O,14,E10,54.791015625
0,1,0,20050,2.005859375,0.1796875,5,0,2,3,10,593.868530273438,371.745574951172,0,1,faces,female,0,1,objects,A,small,VS,O,14,E10,54.791015625
0,1,0,20051,2.22265625,0.185546875,6,0,3,13,11,681.770324707031,488.366394042969,0,1,objects,small,0,1,objects,A,small,VS,O,14,E10,54.791015625
2,1,0,20057,3.421875,0.173828125,7,0,15,79,17,1392.69067382812,788.198120117188,0,1,objects,small,0,1,objects,A,small,VS,O,14,E10,54.791015625
2,1,0,20058,3.642578125,0.15625,8,0,12,62,18,1184.71643066406,879.493774414062,0,1,faces,female,0,1,objects,A,small,VS,O,14,E10,54.791015625
2,1,0,20059,3.861328125,0.16015625,9,0,14,77,19,1398.73547363281,553.198608398438,0,1,faces,male,0,1,objects,A,small,VS,O,14,E10,54.791015625
0,1,0,20074,1.79296875,0.263671875,1,1,3,15,7,704.044067382812,615.874877929688,0,1,faces,female,0,1,objects,A,small,EX,O,15,E10,58.990234375
0,1,1,20075,2.123046875,0.16015625,2,1,9,42,8,925.83251953125,673.824523925781,0,1,objects,small,0,1,objects,A,small,EX,O,15,E10,58.990234375
1,1,0,20077,2.5546875,0.212890625,3,1,14,62,10,1118.82067871094,801.488830566406,0,1,objects,big,0,1,objects,A,small,EX,O,15,E10,58.990234375
0,1,1,20078,2.787109375,0.22265625,4,1,11,53,11,1089.78149414062,810.168640136719,0,1,faces,male,0,1,objects,A,small,EX,O,15,E10,58.990234375
2,1,0,20080,3.4453125,0.21875,5,0,14,62,13,1202.54333496094,880.282287597656,0,1,objects,big,0,1,objects,A,small,EX,O,15,E10,58.990234375
0,1,0,20081,3.734375,0.236328125,6,0,7,27,14,720.462646484375,989.24267578125,0,1,faces,female,0,1,objects,A,small,EX,O,15,E10,58.990234375
0,1,0,20091,0.333984375,0.22265625,1,1,11,60,1,1176.6279296875,686.693420410156,0,1,faces,female,1,1,faces,P,female,VS,F,16,E10,63.189453125
0,1,0,20093,0.845703125,0.16015625,2,1,12,61,3,1204.11889648438,786.865173339844,0,1,faces,male,1,1,faces,P,female,VS,F,16,E10,63.189453125
0,0,1,20095,1.330078125,0.322265625,3,1,13,68,5,1284.568359375,578.599365234375,1,0,NaN,NaN,1,1,faces,P,female,VS,F,16,E10,63.189453125
0,1,0,20111,0.591796875,0.107421875,1,1,3,9,3,568.59814453125,983.643371582031,0,1,faces,male,0,1,faces,A,female,VS,F,17,E10,67.388671875
0,1,0,20120,2.6640625,0.275390625,2,1,14,76,12,1392.27404785156,471.875335693359,0,1,faces,female,0,1,faces,A,female,VS,F,17,E10,67.388671875
0,1,0,20121,2.982421875,0.3125,3,1,13,74,13,1396.10607910156,277.110168457031,0,1,faces,male,0,1,faces,A,female,VS,F,17,E10,67.388671875
1,1,0,20138,0.673828125,0.13671875,1,1,11,53,3,1105.24279785156,882.949645996094,1,0,NaN,NaN,1,1,faces,P,female,VS,F,18,E10,71.587890625
2,1,0,20142,3.548828125,0.166015625,2,1,11,53,7,1084.80187988281,872.908264160156,1,0,NaN,NaN,1,1,faces,P,female,VS,F,18,E10,71.587890625
0,1,1,20157,1.138671875,0.162109375,1,1,6,36,5,909.951171875,959.024658203125,0,1,faces,female,0,1,faces,P,female,VS,F,19,E10,75.787109375
0,1,0,20160,1.6953125,0.234375,2,1,3,24,8,773.819946289062,671.088500976562,0,1,faces,female,0,1,faces,P,female,VS,F,19,E10,75.787109375
0,1,0,20161,1.96484375,0.12109375,3,1,5,32,9,878.297546386719,528.329833984375,0,1,faces,male,0,1,faces,P,female,VS,F,19,E10,75.787109375
1,1,1,20165,2.763671875,0.126953125,4,1,9,47,13,1075.86560058594,233.197738647461,0,1,objects,big,0,1,faces,P,female,VS,F,19,E10,75.787109375
2,1,0,20168,3.517578125,0.146484375,5,0,9,47,16,1044.04333496094,207.041900634766,0,1,objects,big,0,1,faces,P,female,VS,F,19,E10,75.787109375
0,1,0,20178,0.744140625,0.140625,1,1,10,27,4,778.609375,897.359252929688,0,1,faces,male,0,1,faces,A,male,VS,F,20,E10,79.986328125
0,1,0,20182,1.65625,0.23046875,2,1,12,31,8,892.974975585938,415.924072265625,0,1,faces,female,0,1,faces,A,male,VS,F,20,E10,79.986328125
0,1,0,20184,2.142578125,0.1875,3,1,3,3,10,587.502685546875,320.891967773438,0,1,objects,small,0,1,faces,A,male,VS,F,20,E10,79.986328125
0,1,0,20187,2.880859375,0.1171875,4,1,13,59,13,1189.51416015625,577.552612304688,0,1,objects,big,0,1,faces,A,male,VS,F,20,E10,79.986328125
0,1,0,20188,3.02734375,0.212890625,5,0,15,67,14,1303.71118164062,485.887512207031,0,1,faces,male,0,1,faces,A,male,VS,F,20,E10,79.986328125
0,1,0,20198,0.34765625,0.158203125,1,1,3,24,2,798.455139160156,671.533081054688,0,1,faces,male,0,1,objects,P,small,VS,O,21,E10,84.185546875
0,1,0,20199,0.5234375,0.177734375,2,1,4,25,3,775.859130859375,696.201599121094,0,1,faces,female,0,1,objects,P,small,VS,O,21,E10,84.185546875
0,1,0,20201,0.962890625,0.2265625,3,1,9,40,5,928.856994628906,394.881378173828,0,1,objects,small,0,1,objects,P,small,VS,O,21,E10,84.185546875
0,1,0,20202,1.216796875,0.111328125,4,1,7,30,6,886.676208496094,325.869262695312,0,1,faces,female,0,1,objects,P,small,VS,O,21,E10,84.185546875
1,1,0,20215,0.123046875,0.232421875,1,1,14,50,1,1036.97583007812,543.303649902344,0,1,faces,female,0,0,objects,A,big,EX,O,22,E10,88.384765625
1,1,0,20216,0.384765625,0.224609375,2,1,11,42,2,996.530151367188,653.890197753906,0,1,objects,big,0,0,objects,A,big,EX,O,22,E10,88.384765625
2,1,0,20221,1.494140625,0.3125,3,1,14,50,7,1087.25866699219,503.2607421875,0,1,faces,female,0,0,objects,A,big,EX,O,22,E10,88.384765625
2,1,0,20223,2.119140625,0.2265625,4,1,11,42,9,987.843872070312,685.143127441406,0,1,objects,big,0,0,objects,A,big,EX,O,22,E10,88.384765625
0,1,0,20225,3.6484375,0.349609375,5,0,9,36,11,894.942626953125,976.620300292969,0,1,faces,male,0,0,objects,A,big,EX,O,22,E10,88.384765625
0,1,0,20242,0.96875,0.171875,1,1,3,14,5,654.913208007812,586.726318359375,0,1,objects,small,0,1,faces,P,female,VS,I,23,E10,92.583984375
0,1,0,20246,1.771484375,0.142578125,2,1,12,47,9,1108.158203125,237.176498413086,0,1,objects,big,0,1,faces,P,female,VS,I,23,E10,92.583984375
0,1,0,20251,3.228515625,0.115234375,3,1,15,63,14,1153.48950195312,925.494812011719,0,1,faces,male,0,1,faces,P,female,VS,I,23,E10,92.583984375
0,1,0,20262,0.23828125,0.29296875,1,1,4,32,2,879.534606933594,577.290466308594,0,1,objects,big,0,1,faces,A,female,EX,I,24,E10,96.783203125
1,1,0,20265,0.94140625,0.384765625,2,1,13,78,5,1402.14038085938,690.390380859375,0,1,objects,small,0,1,faces,A,female,EX,I,24,E10,96.783203125
0,1,0,20266,1.353515625,0.142578125,3,1,14,79,6,1402.16613769531,739.291076660156,0,1,faces,male,0,1,faces,A,female,EX,I,24,E10,96.783203125
2,1,0,20268,1.73828125,0.462890625,4,1,13,78,8,1398.28186035156,689.185363769531,0,1,objects,small,0,1,faces,A,female,EX,I,24,E10,96.783203125
0,1,0,20269,2.244140625,0.19921875,5,0,12,76,9,1395.69006347656,489.316101074219,0,1,faces,female,0,1,faces,A,female,EX,I,24,E10,96.783203125
0,1,0,20270,2.501953125,0.234375,6,0,11,56,10,1135.12573242188,271.767395019531,0,1,faces,female,0,1,faces,A,female,EX,I,24,E10,96.783203125
0,1,0,20271,2.77734375,0.11328125,7,0,9,47,11,1034.39807128906,228.582809448242,0,1,faces,male,0,1,faces,A,female,EX,I,24,E10,96.783203125
0,1,0,20275,3.7734375,0.294921875,8,0,5,34,15,889.8173828125,779.584411621094,0,1,faces,male,0,1,faces,A,female,EX,I,24,E10,96.783203125
1,0,1,20294,0.61328125,0.412109375,1,1,11,68,3,1264.5869140625,504.890289306641,1,0,NaN,NaN,1,1,faces,P,female,VS,F,26,E10,105.181640625
2,0,0,20297,2.806640625,0.21875,2,1,11,68,6,1245.19274902344,506.879699707031,1,0,NaN,NaN,1,1,faces,P,female,VS,F,26,E10,105.181640625
0,1,0,20307,0.259765625,0.146484375,1,1,9,48,2,1055.18103027344,349.386932373047,0,1,faces,female,0,0,faces,A,female,VS,I,27,E10,109.380859375
0,1,0,20308,0.4453125,0.19921875,2,1,11,58,3,1159.74963378906,418.505157470703,0,1,faces,female,0,0,faces,A,female,VS,I,27,E10,109.380859375
0,1,0,20309,0.6875,0.224609375,3,1,14,69,4,1268.46606445312,639.828002929688,0,1,faces,female,0,0,faces,A,female,VS,I,27,E10,109.380859375
0,1,0,20310,0.95703125,0.234375,4,1,12,62,5,1185.66552734375,826.091674804688,0,1,faces,male,0,0,faces,A,female,VS,I,27,E10,109.380859375
0,1,0,20311,1.23046875,0.1328125,5,0,13,63,6,1180.31298828125,920.860961914062,0,1,faces,male,0,0,faces,A,female,VS,I,27,E10,109.380859375
0,1,1,20313,1.595703125,0.25,6,0,3,16,8,666.556457519531,744.658386230469,0,1,faces,female,0,0,faces,A,female,VS,I,27,E10,109.380859375
0,1,0,20315,2.072265625,0.244140625,7,0,4,17,10,651.690490722656,821.568176269531,0,1,faces,female,0,0,faces,A,female,VS,I,27,E10,109.380859375
0,1,1,20316,3.77734375,0.134765625,8,0,2,14,11,657.7841796875,533.867980957031,0,1,faces,female,0,0,faces,A,female,VS,I,27,E10,109.380859375
1,1,0,20326,0.2578125,0.158203125,1,1,7,21,1,806.150817871094,343.709930419922,0,1,faces,female,0,0,faces,A,female,EX,I,28,E10,113.580078125
1,1,0,20327,0.455078125,0.23046875,2,1,10,40,2,969.888000488281,422.478118896484,0,1,faces,female,0,0,faces,A,female,EX,I,28,E10,113.580078125
1,1,0,20328,0.724609375,0.197265625,3,1,12,59,3,1160.67260742188,544.518798828125,0,1,objects,small,0,0,faces,A,female,EX,I,28,E10,113.580078125
0,1,1,20329,0.951171875,0.328125,4,1,11,51,4,1051.41552734375,610.235656738281,0,1,faces,male,0,0,faces,A,female,EX,I,28,E10,113.580078125
2,1,0,20331,1.67578125,0.37109375,5,0,12,59,6,1175.68823242188,520.319763183594,0,1,objects,small,0,0,faces,A,female,EX,I,28,E10,113.580078125
0,1,1,20333,2.189453125,0.162109375,6,0,15,77,8,1381.32836914062,510.757141113281,0,1,faces,female,0,0,faces,A,female,EX,I,28,E10,113.580078125
2,1,0,20335,2.564453125,0.142578125,7,0,10,40,10,949.495300292969,431.114776611328,0,1,faces,female,0,0,faces,A,female,EX,I,28,E10,113.580078125
1,1,0,20336,2.76171875,0.177734375,8,0,6,20,11,781.529602050781,277.928924560547,0,1,objects,big,0,0,faces,A,female,EX,I,28,E10,113.580078125
2,1,0,20337,2.962890625,0.189453125,9,0,7,21,12,754.515930175781,316.961669921875,0,1,faces,female,0,0,faces,A,female,EX,I,28,E10,113.580078125
2,1,0,20338,3.1796875,0.318359375,10,0,6,20,13,768.089660644531,238.277542114258,0,1,objects,big,0,0,faces,A,female,EX,I,28,E10,113.580078125
0,1,0,20339,3.52734375,0.212890625,11,0,5,19,14,769.7607421875,133.702682495117,0,1,faces,female,0,0,faces,A,female,EX,I,28,E10,113.580078125
0,1,0,20340,3.779296875,0.263671875,12,0,8,28,15,891.03466796875,130.827087402344,0,1,faces,male,0,0,faces,A,female,EX,I,28,E10,113.580078125
0,1,0,20351,0.20703125,0.125,1,1,4,32,1,893.670471191406,538.184997558594,0,1,objects,small,1,1,faces,P,male,VS,I,29,E10,117.779296875
0,1,1,20354,0.640625,0.1484375,2,1,2,16,4,667.463623046875,729.115234375,0,1,faces,male,1,1,faces,P,male,VS,I,29,E10,117.779296875
0,1,0,20355,0.82421875,0.22265625,3,1,5,34,5,853.263854980469,716.516906738281,0,1,faces,male,1,1,faces,P,male,VS,I,29,E10,117.779296875
0,1,0,20359,1.5625,0.150390625,4,1,14,75,9,1363.38317871094,384.622222900391,0,1,objects,big,1,1,faces,P,male,VS,I,29,E10,117.779296875
0,1,0,20361,2.822265625,0.287109375,5,0,9,55,11,1173.57849121094,169.145584106445,0,1,faces,male,1,1,faces,P,male,VS,I,29,E10,117.779296875
0,1,1,20362,3.1875,0.119140625,6,0,15,76,12,1358.46069335938,477.906341552734,1,0,NaN,NaN,1,1,faces,P,male,VS,I,29,E10,117.779296875
0,1,1,20380,0.73046875,0.166015625,1,1,14,78,3,1353.95007324219,675.041198730469,0,1,faces,female,0,1,faces,A,male,VS,F,30,E10,121.978515625
0,1,0,20382,1.091796875,0.142578125,2,1,13,69,5,1279.39892578125,627.914184570312,0,1,faces,male,0,1,faces,A,male,VS,F,30,E10,121.978515625
0,1,0,20383,1.275390625,0.205078125,3,1,15,79,6,1387.20715332031,702.049987792969,0,1,faces,male,0,1,faces,A,male,VS,F,30,E10,121.978515625
0,1,0,20384,1.541015625,0.173828125,4,1,9,59,7,1164.79858398438,520.195129394531,0,1,faces,male,0,1,faces,A,male,VS,F,30,E10,121.978515625
0,1,1,20385,1.76171875,0.130859375,5,0,12,66,8,1218.04968261719,345.440277099609,0,1,faces,male,0,1,faces,A,male,VS,F,30,E10,121.978515625
0,1,0,20387,2.111328125,0.212890625,6,0,11,64,10,1277.28698730469,150.886169433594,0,1,objects,big,0,1,faces,A,male,VS,F,30,E10,121.978515625
0,1,1,20388,2.400390625,0.1484375,7,0,2,11,11,686.025634765625,212.329864501953,0,1,faces,male,0,1,faces,A,male,VS,F,30,E10,121.978515625
0,1,0,20390,2.712890625,0.11328125,8,0,5,22,13,779.007934570312,430.930694580078,0,1,faces,male,0,1,faces,A,male,VS,F,30,E10,121.978515625
0,1,1,20391,2.857421875,0.185546875,9,0,8,40,14,974.010192871094,400.332611083984,0,1,faces,female,0,1,faces,A,male,VS,F,30,E10,121.978515625
0,1,0,20393,3.294921875,0.1171875,10,0,7,39,16,957.088623046875,324.153747558594,0,1,faces,female,0,1,faces,A,male,VS,F,30,E10,121.978515625
0,1,0,20394,3.478515625,0.19921875,11,0,6,34,17,859.917785644531,692.016296386719,0,1,objects,small,0,1,faces,A,male,VS,F,30,E10,121.978515625
0,1,1,20395,3.740234375,0.10546875,12,0,1,8,18,597.790588378906,806.484924316406,0,1,objects,big,0,1,faces,A,male,VS,F,30,E10,121.978515625
1,1,1,20405,0.666015625,0.115234375,1,1,1,5,1,608.635192871094,573.304077148438,0,1,faces,male,0,1,faces,A,male,VS,I,31,E10,126.177734375
0,1,0,20407,1.02734375,0.208984375,2,1,3,13,3,700.205017089844,427.715209960938,0,1,objects,small,0,1,faces,A,male,VS,I,31,E10,126.177734375
2,1,1,20408,1.294921875,0.197265625,3,1,1,5,4,566.878112792969,518.913696289062,0,1,faces,male,0,1,faces,A,male,VS,I,31,E10,126.177734375
1,1,0,20410,1.736328125,0.17578125,4,1,13,57,6,1188.02416992188,377.66845703125,0,1,faces,male,0,1,faces,A,male,VS,I,31,E10,126.177734375
1,1,0,20411,1.931640625,0.13671875,5,0,14,58,7,1151.00744628906,409.144744873047,0,1,faces,female,0,1,faces,A,male,VS,I,31,E10,126.177734375
2,1,1,20412,2.103515625,0.154296875,6,0,13,57,8,1176.53076171875,371.031402587891,0,1,faces,male,0,1,faces,A,male,VS,I,31,E10,126.177734375
2,1,0,20414,2.3828125,0.19140625,7,0,14,58,10,1170.07775878906,424.158172607422,0,1,faces,female,0,1,faces,A,male,VS,I,31,E10,126.177734375
0,1,0,20415,2.599609375,0.23046875,8,0,11,49,11,1071.41333007812,430.867126464844,0,1,faces,male,0,1,faces,A,male,VS,I,31,E10,126.177734375
0,1,0,20416,2.888671875,0.13671875,9,0,5,20,12,733.478332519531,286.125823974609,0,1,objects,big,0,1,faces,A,male,VS,I,31,E10,126.177734375
0,1,0,20417,3.044921875,0.2421875,10,0,6,21,13,773.867370605469,310.416656494141,0,1,faces,male,0,1,faces,A,male,VS,I,31,E10,126.177734375
0,1,0,20419,3.451171875,0.154296875,11,0,10,46,15,1089.91247558594,158.555755615234,0,1,faces,male,0,1,faces,A,male,VS,I,31,E10,126.177734375
0,1,1,20420,3.6484375,0.119140625,12,0,15,76,16,1386.99658203125,439.935424804688,0,1,faces,female,0,1,faces,A,male,VS,I,31,E10,126.177734375
0,1,0,20422,3.955078125,0.154296875,13,0,8,25,18,771.6513671875,782.697692871094,0,1,objects,big,0,1,faces,A,male,VS,I,31,E10,126.177734375
1,0,1,20432,0.57421875,0.248046875,1,1,3,22,3,758.343017578125,450.240051269531,1,0,NaN,NaN,1,1,objects,P,small,VS,O,32,E10,130.376953125
2,0,1,20436,2.849609375,1.091796875,2,1,3,22,7,773.027709960938,437.986541748047,1,0,NaN,NaN,1,1,objects,P,small,VS,O,32,E10,130.376953125
0,1,0,20447,0.22265625,0.1171875,1,1,8,32,1,810.809692382812,514.7421875,0,1,faces,female,0,1,objects,A,big,VS,O,33,E10,134.576171875
0,1,0,20448,0.396484375,0.13671875,2,1,4,15,2,685.778442382812,639.455993652344,0,1,faces,male,0,1,objects,A,big,VS,O,33,E10,134.576171875
0,1,0,20449,0.56640625,0.1796875,3,1,2,7,3,557.340637207031,717.921813964844,0,1,objects,big,0,1,objects,A,big,VS,O,33,E10,134.576171875
0,1,0,20450,0.841796875,0.201171875,4,1,14,80,4,1371.15808105469,832.507873535156,0,1,objects,big,0,1,objects,A,big,VS,O,33,E10,134.576171875
0,1,0,20453,1.5,0.26171875,5,0,12,48,7,1078.83837890625,309.761566162109,0,1,objects,small,0,1,objects,A,big,VS,O,33,E10,134.576171875
0,1,0,20455,2.025390625,0.126953125,6,0,7,24,9,753.491882324219,637.715087890625,0,1,faces,male,0,1,objects,A,big,VS,O,33,E10,134.576171875
0,1,0,20456,2.21875,0.125,7,0,5,18,10,678.37646484375,974.947448730469,0,1,faces,female,0,1,objects,A,big,VS,O,33,E10,134.576171875
0,1,1,20460,2.970703125,0.177734375,8,0,3,14,14,673.650695800781,574.175537109375,0,1,faces,female,0,1,objects,A,big,VS,O,33,E10,134.576171875
1,1,0,20473,0.447265625,0.193359375,1,1,7,23,2,757.026062011719,553.815002441406,0,1,faces,male,0,1,faces,A,female,VS,F,34,E10,138.775390625
0,1,0,20475,0.8359375,0.15625,2,1,9,40,4,982.868041992188,446.163421630859,0,1,faces,female,0,1,faces,A,female,VS,F,34,E10,138.775390625
2,1,0,20476,1.052734375,0.177734375,3,1,7,23,5,775.509460449219,525.646545410156,0,1,faces,male,0,1,faces,A,female,VS,F,34,E10,138.775390625
0,1,0,20477,1.255859375,0.212890625,4,1,6,22,6,775.341979980469,444.603332519531,0,1,faces,male,0,1,faces,A,female,VS,F,34,E10,138.775390625
0,1,1,20478,1.50390625,0.197265625,5,0,2,4,7,561.341613769531,449.121826171875,0,1,faces,female,0,1,faces,A,female,VS,F,34,E10,138.775390625
0,1,0,20481,2,0.275390625,6,0,4,7,10,586.6591796875,707.525451660156,0,1,objects,big,0,1,faces,A,female,VS,F,34,E10,138.775390625
0,1,0,20482,2.330078125,0.10546875,7,0,8,26,11,712.410827636719,846.633361816406,0,1,objects,small,0,1,faces,A,female,VS,F,34,E10,138.775390625
0,1,0,20485,2.80078125,0.14453125,8,0,14,70,14,1284.69555664062,713.212585449219,0,1,faces,female,0,1,faces,A,female,VS,F,34,E10,138.775390625
0,1,0,20487,3.173828125,0.2734375,9,0,13,63,16,1176.259765625,930.896240234375,0,1,faces,male,0,1,faces,A,female,VS,F,34,E10,138.775390625
0,1,0,20489,3.662109375,0.205078125,10,0,10,55,18,1157.05139160156,185.940383911133,0,1,faces,female,0,1,faces,A,female,VS,F,34,E10,138.775390625
0,1,0,20490,3.890625,0.13671875,11,0,11,56,19,1165.728515625,231.162048339844,0,1,objects,big,0,1,faces,A,female,VS,F,34,E10,138.775390625
1,1,0,20507,0.41015625,0.169921875,1,1,7,25,2,754.092651367188,749.011535644531,0,1,faces,male,0,1,objects,A,small,VS,O,35,E10,142.974609375
0,1,0,20508,0.658203125,0.12109375,2,1,13,71,3,1231.06213378906,881.125183105469,0,1,faces,male,0,1,objects,A,small,VS,O,35,E10,142.974609375
0,1,0,20510,0.978515625,0.267578125,3,1,15,74,5,1355.22045898438,262.872436523438,0,1,faces,female,0,1,objects,A,small,VS,O,35,E10,142.974609375
2,1,0,20512,1.52734375,0.126953125,4,1,7,25,7,756.403686523438,738.170837402344,0,1,faces,male,0,1,objects,A,small,VS,O,35,E10,142.974609375
0,1,0,20514,1.80859375,0.21875,5,0,3,4,9,579.090637207031,405.534942626953,0,1,faces,female,0,1,objects,A,small,VS,O,35,E10,142.974609375
0,1,0,20515,2.0703125,0.19140625,6,0,2,2,10,588.946838378906,240.069381713867,0,1,faces,female,0,1,objects,A,small,VS,O,35,E10,142.974609375
0,1,0,20516,2.287109375,0.12890625,7,0,4,11,11,673.584045410156,257.844787597656,0,1,objects,small,0,1,objects,A,small,VS,O,35,E10,142.974609375
0,1,0,20517,2.447265625,0.208984375,8,0,1,1,12,592.011413574219,175.494979858398,0,1,objects,big,0,1,objects,A,small,VS,O,35,E10,142.974609375
0,1,0,20518,2.708984375,0.2421875,9,0,5,14,13,693.976867675781,511.977905273438,0,1,faces,male,0,1,objects,A,small,VS,O,35,E10,142.974609375
0,1,0,20519,3.009765625,0.1796875,10,0,6,16,14,692.156799316406,764.778625488281,0,1,faces,female,0,1,objects,A,small,VS,O,35,E10,142.974609375
0,1,0,20520,3.224609375,0.212890625,11,0,8,26,15,777.35888671875,824.794982910156,0,1,objects,big,0,1,objects,A,small,VS,O,35,E10,142.974609375
0,1,0,20521,3.515625,0.2890625,12,0,14,73,16,1388.70971679688,179.987457275391,0,1,faces,male,0,1,objects,A,small,VS,O,35,E10,142.974609375
0,1,0,20528,0.21875,0.263671875,1,1,9,42,1,941.294006347656,662.480285644531,0,1,objects,big,0,1,objects,P,small,VS,O,36,E10,147.173828125
0,1,0,20531,0.9375,0.146484375,2,1,12,59,4,1170.73205566406,587.554382324219,0,1,faces,female,0,1,objects,P,small,VS,O,36,E10,147.173828125
0,1,0,20532,1.1015625,0.134765625,3,1,13,60,5,1180.26196289062,618.021911621094,0,1,objects,big,0,1,objects,P,small,VS,O,36,E10,147.173828125
0,1,0,20533,1.27734375,0.193359375,4,1,15,77,6,1375.70654296875,548.712280273438,0,1,faces,female,0,1,objects,P,small,VS,O,36,E10,147.173828125
0,1,0,20535,1.791015625,0.169921875,5,0,8,40,8,985.956115722656,414.344024658203,0,1,faces,male,0,1,objects,P,small,VS,O,36,E10,147.173828125
0,1,1,20536,1.9921875,0.1640625,6,0,7,32,9,877.335021972656,528.050231933594,0,1,faces,male,0,1,objects,P,small,VS,O,36,E10,147.173828125
0,1,0,20545,0.208984375,0.2734375,1,1,5,24,1,733.842346191406,661.1083984375,0,1,objects,small,0,1,objects,A,small,EX,O,37,E10,151.373046875
0,1,1,20546,0.533203125,0.126953125,2,1,1,5,2,557.401000976562,567.686096191406,0,1,faces,male,0,1,objects,A,small,EX,O,37,E10,151.373046875
1,1,1,20548,0.880859375,0.16015625,3,1,4,20,4,801.137084960938,246.519775390625,0,1,faces,male,0,1,objects,A,small,EX,O,37,E10,151.373046875
0,1,1,20550,1.28125,0.18359375,4,1,3,19,6,763.721130371094,165.206512451172,0,1,faces,female,0,1,objects,A,small,EX,O,37,E10,151.373046875
0,1,0,20552,1.703125,0.1640625,5,0,7,37,8,985.640930175781,181.225494384766,0,1,faces,male,0,1,objects,A,small,EX,O,37,E10,151.373046875
0,1,0,20553,1.890625,0.5625,6,0,8,38,9,960.936401367188,244.579071044922,0,1,faces,female,0,1,objects,A,small,EX,O,37,E10,151.373046875
2,1,0,20554,2.490234375,0.2109375,7,0,4,20,10,753.868591308594,263.047729492188,0,1,faces,male,0,1,objects,A,small,EX,O,37,E10,151.373046875
1,1,1,20555,2.76171875,0.162109375,8,0,13,73,11,1353.80334472656,174.284057617188,0,1,faces,male,0,1,objects,A,small,EX,O,37,E10,151.373046875
0,1,0,20557,3.12109375,0.23828125,9,0,14,74,13,1360.32409667969,235.317565917969,0,1,faces,female,0,1,objects,A,small,EX,O,37,E10,151.373046875
2,1,0,20558,3.388671875,0.330078125,10,0,13,73,14,1358.07934570312,159.583084106445,0,1,faces,male,0,1,objects,A,small,EX,O,37,E10,151.373046875
0,1,0,20559,3.78515625,0.248046875,11,0,12,67,15,1232.33166503906,419.141052246094,0,1,faces,female,0,1,objects,A,small,EX,O,37,E10,151.373046875
0,1,0,20572,0.4453125,0.1796875,1,1,12,50,3,1089.69738769531,496.657653808594,0,1,faces,male,0,1,faces,A,female,EX,F,38,E10,155.572265625
0,1,0,20573,0.658203125,0.232421875,2,1,14,58,4,1159.42700195312,458.055358886719,0,1,faces,female,0,1,faces,A,female,EX,F,38,E10,155.572265625
0,1,0,20574,0.92578125,0.384765625,3,1,15,77,5,1369.27001953125,512.035034179688,0,1,objects,small,0,1,faces,A,female,EX,F,38,E10,155.572265625
0,1,1,20575,1.373046875,0.220703125,4,1,11,48,6,1078.44812011719,366.850250244141,0,1,objects,small,0,1,faces,A,female,EX,F,38,E10,155.572265625
0,1,0,20577,1.83984375,0.193359375,5,0,8,37,8,926.026611328125,150.018539428711,0,1,objects,small,0,1,faces,A,female,EX,F,38,E10,155.572265625
0,1,0,20578,2.0546875,0.21875,6,0,6,28,9,873.729614257812,155.606109619141,0,1,faces,female,0,1,faces,A,female,EX,F,38,E10,155.572265625
0,1,1,20579,2.341796875,0.314453125,7,0,2,2,10,576.598937988281,250.694534301758,0,1,faces,female,0,1,faces,A,female,EX,F,38,E10,155.572265625
0,1,0,20581,2.82421875,0.1640625,8,0,1,1,12,579.768310546875,176.316055297852,0,1,faces,female,0,1,faces,A,female,EX,F,38,E10,155.572265625
0,1,1,20582,3.064453125,0.15234375,9,0,7,33,13,850.651428222656,682.391174316406,0,1,faces,female,0,1,faces,A,female,EX,F,38,E10,155.572265625
0,1,0,20584,3.43359375,0.26953125,10,0,9,43,15,978.689086914062,719.461791992188,0,1,objects,big,0,1,faces,A,female,EX,F,38,E10,155.572265625
0,1,0,20585,3.73046875,0.251953125,11,0,13,52,16,1077.48229980469,716.62158203125,0,1,faces,male,0,1,faces,A,female,EX,F,38,E10,155.572265625
1,0,1,20597,0.783203125,0.21875,1,1,6,33,4,865.576843261719,648.77099609375,1,0,NaN,NaN,1,1,faces,P,female,VS,I,39,E10,159.771484375
0,0,0,20599,1.654296875,0.275390625,2,1,3,25,6,738.7568359375,727.388244628906,0,1,faces,female,1,1,faces,P,female,VS,I,39,E10,159.771484375
2,0,1,20600,1.962890625,0.19921875,3,1,6,33,7,843.094055175781,643.878295898438,1,0,NaN,NaN,1,1,faces,P,female,VS,I,39,E10,159.771484375
3,0,1,20602,2.927734375,0.75,4,1,6,33,9,844.899230957031,613.861267089844,1,0,NaN,NaN,1,1,faces,P,female,VS,I,39,E10,159.771484375
0,1,0,20614,0.228515625,0.20703125,1,1,8,40,1,949.20263671875,437.765563964844,0,1,objects,big,0,1,objects,A,big,EX,O,40,E10,163.970703125
0,1,0,20615,0.49609375,0.609375,2,1,6,33,2,851.804565429688,630.974731445312,0,1,faces,female,0,1,objects,A,big,EX,O,40,E10,163.970703125
1,1,0,20616,1.146484375,0.16015625,3,1,4,25,3,779.723571777344,776.9052734375,0,1,faces,male,0,1,objects,A,big,EX,O,40,E10,163.970703125
0,1,0,20617,1.333984375,0.232421875,4,1,5,26,4,747.819396972656,836.205444335938,0,1,faces,male,0,1,objects,A,big,EX,O,40,E10,163.970703125
2,1,1,20618,1.59765625,0.134765625,5,0,4,25,5,751.024597167969,769.845031738281,0,1,faces,male,0,1,objects,A,big,EX,O,40,E10,163.970703125
0,1,0,20620,1.9375,0.302734375,6,0,9,44,7,983.581359863281,851.018676757812,0,1,faces,male,0,1,objects,A,big,EX,O,40,E10,163.970703125
1,1,0,20621,2.265625,0.208984375,7,0,11,54,8,1070.58911132812,925.721374511719,0,1,objects,big,0,1,objects,A,big,EX,O,40,E10,163.970703125
0,1,0,20622,2.53125,0.240234375,8,0,10,45,9,967.454284667969,940.358764648438,0,1,objects,small,0,1,objects,A,big,EX,O,40,E10,163.970703125
2,1,0,20623,2.80859375,0.193359375,9,0,11,54,10,1053.26245117188,927.479187011719,0,1,objects,big,0,1,objects,A,big,EX,O,40,E10,163.970703125
0,1,0,20626,3.427734375,0.275390625,10,0,13,57,13,1158.74206542969,316.445617675781,0,1,objects,big,0,1,objects,A,big,EX,O,40,E10,163.970703125
0,1,0,20643,0.474609375,0.18359375,1,1,8,34,2,849.306335449219,695.8662109375,0,1,faces,female,1,1,faces,P,female,VS,F,41,E10,168.169921875
0,1,1,20644,0.716796875,0.142578125,2,1,4,17,3,631.908203125,831.052001953125,0,1,faces,female,1,1,faces,P,female,VS,F,41,E10,168.169921875
1,0,0,20646,1,0.22265625,3,1,13,60,5,1188.17077636719,599.8115234375,1,0,NaN,NaN,1,1,faces,P,female,VS,F,41,E10,168.169921875
2,0,1,20648,1.453125,0.232421875,4,1,13,60,7,1172.30883789062,636.959533691406,1,0,NaN,NaN,1,1,faces,P,female,VS,F,41,E10,168.169921875
0,0,1,20650,2.34375,0.16015625,5,0,7,23,9,734.577819824219,493.714324951172,0,1,faces,male,1,1,faces,P,female,VS,F,41,E10,168.169921875
0,0,0,20653,2.978515625,0.203125,6,0,1,4,12,544.936401367188,443.246124267578,0,1,objects,big,1,1,faces,P,female,VS,F,41,E10,168.169921875
0,0,1,20654,3.23046875,0.1875,7,0,6,22,13,761.004211425781,424.748016357422,0,1,faces,male,1,1,faces,P,female,VS,F,41,E10,168.169921875
0,1,0,20662,0.28125,0.111328125,1,1,8,41,1,962.731262207031,537.216857910156,0,1,faces,male,1,1,faces,P,female,VS,I,42,E10,172.369140625
0,1,1,20665,0.775390625,0.2890625,2,1,11,57,4,1170.08142089844,336.302276611328,0,1,faces,male,1,1,faces,P,female,VS,I,42,E10,172.369140625
0,1,1,20666,1.115234375,0.240234375,3,1,13,74,5,1386.59265136719,249.98046875,0,1,faces,female,1,1,faces,P,female,VS,I,42,E10,172.369140625
0,1,0,20670,1.984375,0.181640625,4,1,14,79,9,1380.6494140625,725.257446289062,0,1,faces,male,1,1,faces,P,female,VS,I,42,E10,172.369140625
0,1,0,20671,2.23828125,0.357421875,5,0,7,35,10,862.517944335938,830.089294433594,0,1,faces,female,1,1,faces,P,female,VS,I,42,E10,172.369140625
0,1,0,20673,2.71875,0.150390625,6,0,9,44,12,964.560363769531,823.073486328125,0,1,faces,female,1,1,faces,P,female,VS,I,42,E10,172.369140625
0,1,0,20674,2.927734375,0.259765625,7,0,4,14,13,651.021911621094,539.170288085938,0,1,faces,female,1,1,faces,P,female,VS,I,42,E10,172.369140625
0,1,0,20675,3.23828125,0.107421875,8,0,2,3,14,606.753051757812,377.827331542969,0,1,objects,big,1,1,faces,P,female,VS,I,42,E10,172.369140625
0,1,0,20676,3.376953125,0.181640625,9,0,5,22,15,785.79345703125,434.610504150391,1,0,NaN,NaN,1,1,faces,P,female,VS,I,42,E10,172.369140625
1,1,0,20684,0.392578125,0.109375,1,1,2,13,3,703.3369140625,473.011779785156,1,0,NaN,NaN,1,1,faces,P,female,VS,F,43,E10,176.568359375
2,1,1,20687,0.74609375,0.169921875,2,1,2,13,6,634.273498535156,399.082244873047,1,0,NaN,NaN,1,1,faces,P,female,VS,F,43,E10,176.568359375
3,0,1,20690,2.064453125,0.34375,3,1,2,13,9,612.351684570312,435.738891601562,1,0,NaN,NaN,1,1,faces,P,female,VS,F,43,E10,176.568359375
4,0,1,20696,3.73828125,0.138671875,4,1,2,13,15,619.72412109375,415.774963378906,1,0,NaN,NaN,1,1,faces,P,female,VS,F,43,E10,176.568359375
0,1,0,20724,0.5703125,0.240234375,1,1,4,22,5,714.432495117188,446.381896972656,0,1,objects,small,1,1,objects,P,big,VS,O,44,E10,180.767578125
0,0,0,20734,3.185546875,0.310546875,2,1,2,6,15,511.057586669922,599.178283691406,1,0,NaN,NaN,1,1,objects,P,big,VS,O,44,E10,180.767578125
0,1,0,20759,0.427734375,0.150390625,1,1,3,24,2,782.95703125,636.107543945312,0,1,faces,female,0,1,faces,A,male,EX,F,45,E10,184.966796875
0,1,1,20760,0.611328125,0.24609375,2,1,4,33,3,813.318542480469,632.107360839844,0,1,faces,female,0,1,faces,A,male,EX,F,45,E10,184.966796875
0,1,0,20765,1.427734375,0.1484375,3,1,5,36,8,891.523742675781,892.15087890625,0,1,faces,female,0,1,faces,A,male,EX,F,45,E10,184.966796875
0,1,0,20766,1.626953125,0.109375,4,1,6,45,9,960.876281738281,921.030639648438,0,1,faces,male,0,1,faces,A,male,EX,F,45,E10,184.966796875
0,1,0,20767,1.80078125,0.25,5,0,8,54,10,1049.5048828125,923.334350585938,0,1,objects,big,0,1,faces,A,male,EX,F,45,E10,184.966796875
0,1,0,20768,2.09765625,0.18359375,6,0,7,51,11,1053.25842285156,631.249816894531,0,1,faces,male,0,1,faces,A,male,EX,F,45,E10,184.966796875
0,1,1,20770,2.37890625,0.255859375,7,0,11,60,13,1143.80236816406,630.032958984375,0,1,objects,small,0,1,faces,A,male,EX,F,45,E10,184.966796875
0,1,0,20771,2.662109375,0.171875,8,0,12,61,14,1133.66723632812,708.158996582031,0,1,faces,male,0,1,faces,A,male,EX,F,45,E10,184.966796875
0,1,0,20773,3.037109375,0.27734375,9,0,10,58,16,1136.16174316406,411.799591064453,0,1,objects,small,0,1,faces,A,male,EX,F,45,E10,184.966796875
0,1,1,20774,3.36328125,0.140625,10,0,9,55,17,1158.03479003906,162.379150390625,0,1,objects,big,0,1,faces,A,male,EX,F,45,E10,184.966796875
0,1,0,20776,3.73828125,0.26171875,11,0,14,73,19,1383.46179199219,150.474761962891,0,1,objects,big,0,1,faces,A,male,EX,F,45,E10,184.966796875
0,0,1,20798,1.740234375,0.37109375,1,1,9,37,4,961.01416015625,108.818618774414,1,0,NaN,NaN,1,1,objects,P,big,VS,O,46,E10,189.166015625
0,0,0,20801,3.38671875,0.37109375,2,1,12,73,7,1353.45556640625,135.099334716797,0,1,faces,male,1,1,objects,P,big,VS,O,46,E10,189.166015625
0,0,0,20802,3.78125,0.15625,3,1,13,74,8,1324.90478515625,195.8056640625,0,1,faces,male,1,1,objects,P,big,VS,O,46,E10,189.166015625
0,1,0,20818,0.44140625,0.126953125,1,1,10,54,3,1030.40441894531,893.6064453125,0,1,faces,male,0,1,faces,A,male,EX,I,47,E10,193.365234375
0,1,1,20821,1.13671875,0.115234375,2,1,1,5,6,517.4560546875,516.222412109375,0,1,faces,male,0,1,faces,A,male,EX,I,47,E10,193.365234375
0,1,0,20823,1.3828125,0.1171875,3,1,4,14,8,639.136657714844,507.552642822266,0,1,faces,male,0,1,faces,A,male,EX,I,47,E10,193.365234375
1,1,0,20824,1.55859375,0.255859375,4,1,3,12,9,625.017883300781,317.647491455078,0,1,objects,small,0,1,faces,A,male,EX,I,47,E10,193.365234375
2,1,1,20826,2.203125,0.197265625,5,0,3,12,11,615.596130371094,300.355133056641,0,1,objects,small,0,1,faces,A,male,EX,I,47,E10,193.365234375
0,1,0,20828,2.609375,0.265625,6,0,5,31,13,839.018798828125,396.47216796875,0,1,objects,small,0,1,faces,A,male,EX,I,47,E10,193.365234375
0,1,0,20830,3.115234375,0.1640625,7,0,8,47,15,1048.07556152344,194.212753295898,0,1,objects,big,0,1,faces,A,male,EX,I,47,E10,193.365234375
0,1,0,20831,3.314453125,0.314453125,8,0,7,37,16,938.877502441406,120.732299804688,0,1,objects,big,0,1,faces,A,male,EX,I,47,E10,193.365234375
0,1,0,20832,3.716796875,0.2734375,9,0,15,77,17,1314.474609375,521.338745117188,0,1,objects,small,0,1,faces,A,male,EX,I,47,E10,193.365234375
1,1,0,20848,0.505859375,0.111328125,1,1,5,33,3,811.401794433594,625.059692382812,0,1,faces,female,1,1,faces,P,male,VS,I,48,E10,197.564453125
0,0,0,20849,0.6953125,0.21484375,2,1,14,77,4,1318.08386230469,532.462707519531,1,0,NaN,NaN,1,1,faces,P,male,VS,I,48,E10,197.564453125
0,0,1,20852,1.26171875,0.2734375,3,1,13,71,7,1229.169921875,815.918518066406,0,1,faces,male,1,1,faces,P,male,VS,I,48,E10,197.564453125
0,0,0,20855,2.1171875,0.1484375,4,1,6,36,10,818.589416503906,904.090576171875,0,1,objects,big,1,1,faces,P,male,VS,I,48,E10,197.564453125
1,0,0,20857,2.4765625,0.154296875,5,0,11,59,12,1143.35925292969,578.374633789062,0,1,faces,female,1,1,faces,P,male,VS,I,48,E10,197.564453125
2,0,1,20859,2.767578125,0.205078125,6,0,11,59,14,1133.52612304688,549.949279785156,0,1,faces,female,1,1,faces,P,male,VS,I,48,E10,197.564453125
0,0,0,20861,3.185546875,0.203125,7,0,10,57,16,1122.51928710938,350.906921386719,0,1,faces,female,1,1,faces,P,male,VS,I,48,E10,197.564453125
0,0,0,20862,3.458984375,0.177734375,8,0,4,24,17,716.52587890625,614.60888671875,0,1,faces,male,1,1,faces,P,male,VS,I,48,E10,197.564453125
2,0,0,20863,3.67578125,0.142578125,9,0,5,33,18,833.864929199219,619.598754882812,0,1,faces,female,1,1,faces,P,male,VS,I,48,E10,197.564453125
0,0,0,20864,3.869140625,0.1484375,10,0,1,12,19,620.816955566406,332.226501464844,0,1,faces,male,1,1,faces,P,male,VS,I,48,E10,197.564453125
0,1,0,20879,0.28515625,0.162109375,1,1,9,48,2,1089.65417480469,348.909484863281,0,1,faces,female,1,0,faces,P,male,VS,F,49,E10,201.763671875
0,1,0,20882,0.685546875,0.126953125,2,1,15,76,5,1363.89611816406,441.065612792969,0,1,objects,big,1,0,faces,P,male,VS,F,49,E10,201.763671875
0,1,1,20888,2.86328125,0.158203125,3,1,6,24,11,773.843933105469,637.776306152344,0,1,faces,male,1,0,faces,P,male,VS,F,49,E10,201.763671875
0,1,1,20890,3.228515625,0.138671875,4,1,3,13,13,644.118774414062,467.270233154297,0,1,faces,male,1,0,faces,P,male,VS,F,49,E10,201.763671875
0,1,1,20892,3.619140625,0.349609375,5,0,12,64,15,1272.16625976562,170.203689575195,0,1,faces,male,1,0,faces,P,male,VS,F,49,E10,201.763671875
0,1,0,20912,0.666015625,0.13671875,1,1,14,70,4,1304.25427246094,732.537475585938,0,1,objects,big,1,1,objects,P,small,VS,O,50,E10,205.962890625
0,1,1,20913,0.884765625,0.134765625,2,1,4,18,5,639.022033691406,956.338317871094,0,1,faces,female,1,1,objects,P,small,VS,O,50,E10,205.962890625
0,1,0,20918,1.4921875,0.21484375,3,1,8,29,10,891.707763671875,233.658386230469,0,1,faces,male,1,1,objects,P,small,VS,O,50,E10,205.962890625
1,1,1,20919,1.75,0.13671875,4,1,7,28,11,833.200012207031,150.341720581055,0,1,objects,big,1,1,objects,P,small,VS,O,50,E10,205.962890625
2,1,0,20922,2.9375,0.140625,5,0,7,28,14,835.649169921875,156.525497436523,0,1,objects,big,1,1,objects,P,small,VS,O,50,E10,205.962890625
0,0,0,20923,3.125,0.234375,6,0,5,19,15,793.241821289062,135.074371337891,1,0,NaN,NaN,1,1,objects,P,small,VS,O,50,E10,205.962890625
0,1,0,20942,0.265625,0.244140625,1,1,5,40,1,1004.67504882812,449.772583007812,0,1,faces,male,0,1,faces,A,female,EX,F,51,E10,210.162109375
0,1,0,20943,0.583984375,0.154296875,2,1,6,41,2,957.184020996094,581.949401855469,0,1,faces,female,0,1,faces,A,female,EX,F,51,E10,210.162109375
0,1,1,20944,0.779296875,0.1484375,3,1,4,34,3,871.87109375,728.312072753906,0,1,faces,female,0,1,faces,A,female,EX,F,51,E10,210.162109375
0,1,0,20946,1.228515625,0.298828125,4,1,7,44,5,977.029907226562,823.466125488281,0,1,objects,big,0,1,faces,A,female,EX,F,51,E10,210.162109375
0,1,1,20950,1.79296875,0.185546875,5,0,8,45,9,977.197387695312,905.782043457031,0,1,objects,big,0,1,faces,A,female,EX,F,51,E10,210.162109375
0,1,0,20951,2.09375,0.193359375,6,0,10,54,10,1076.45202636719,920.574890136719,0,1,faces,female,0,1,faces,A,female,EX,F,51,E10,210.162109375
0,1,1,20954,2.728515625,0.1328125,7,0,2,16,13,653.280639648438,740.648864746094,0,1,objects,small,0,1,faces,A,female,EX,F,51,E10,210.162109375
0,1,1,20957,3.205078125,0.16796875,8,0,9,48,16,1083.01110839844,339.228576660156,0,1,faces,female,0,1,faces,A,female,EX,F,51,E10,210.162109375
0,1,1,20959,3.533203125,0.25390625,9,0,1,11,18,695.055603027344,246.556518554688,0,1,objects,small,0,1,faces,A,female,EX,F,51,E10,210.162109375
0,1,0,20991,0.453125,0.12109375,1,1,13,69,5,1296.6083984375,628.878112792969,0,1,faces,male,1,1,faces,P,female,VS,I,52,E10,214.361328125
1,1,1,20992,0.630859375,0.134765625,2,1,10,57,6,1180.3173828125,380.318939208984,1,0,NaN,NaN,1,1,faces,P,female,VS,I,52,E10,214.361328125
2,0,1,20995,1.197265625,0.24609375,3,1,10,57,9,1201.52062988281,335.556030273438,1,0,NaN,NaN,1,1,faces,P,female,VS,I,52,E10,214.361328125
0,1,0,21030,0.98046875,0.28125,1,1,5,21,4,780.7958984375,357.569793701172,0,1,faces,male,0,1,objects,A,small,VS,O,53,E10,218.560546875
0,1,0,21031,1.33984375,0.22265625,2,1,9,57,5,1198.05737304688,346.918151855469,0,1,faces,male,0,1,objects,A,small,VS,O,53,E10,218.560546875
0,1,0,21032,1.63671875,0.115234375,3,1,7,48,6,1091.65942382812,336.047149658203,0,1,objects,big,0,1,objects,A,small,VS,O,53,E10,218.560546875
0,1,0,21033,1.8203125,0.19921875,4,1,2,4,7,572.529663085938,406.214080810547,0,1,faces,female,0,1,objects,A,small,VS,O,53,E10,218.560546875
0,1,0,21037,2.578125,0.279296875,5,0,14,74,11,1345.28259277344,260.999877929688,0,1,faces,female,0,1,objects,A,small,VS,O,53,E10,218.560546875
0,1,0,21038,2.912109375,0.126953125,6,0,13,66,12,1254.818359375,328.606994628906,0,1,faces,male,0,1,objects,A,small,VS,O,53,E10,218.560546875
0,1,0,21039,3.072265625,0.1328125,7,0,10,58,13,1180.4736328125,439.961334228516,0,1,objects,small,0,1,objects,A,small,VS,O,53,E10,218.560546875
0,1,0,21040,3.267578125,0.15625,8,0,15,81,14,1400.48950195312,921.396301269531,0,1,faces,female,0,1,objects,A,small,VS,O,53,E10,218.560546875
1,1,0,21065,0.869140625,0.173828125,1,1,4,16,8,697.4560546875,741.795288085938,0,1,faces,male,1,0,faces,P,female,VS,F,54,E10,222.759765625
0,1,1,21067,1.27734375,0.115234375,2,1,3,12,10,675.271667480469,354.562042236328,0,1,faces,male,1,0,faces,P,female,VS,F,54,E10,222.759765625
0,1,0,21071,1.830078125,0.2421875,3,1,10,48,14,1105.56494140625,336.496826171875,0,1,objects,big,1,0,faces,P,female,VS,F,54,E10,222.759765625
0,1,0,21072,2.1015625,0.134765625,4,1,8,39,15,1009.82055664062,346.962493896484,0,1,faces,female,1,0,faces,P,female,VS,F,54,E10,222.759765625
2,1,1,21078,3.59765625,0.19921875,5,0,4,16,21,695.504760742188,786.041076660156,0,1,faces,male,1,0,faces,P,female,VS,F,54,E10,222.759765625
0,1,0,21099,0.228515625,0.12890625,1,1,10,42,1,920.574096679688,606.037109375,0,1,objects,big,1,1,objects,P,small,VS,O,55,E10,226.958984375
0,1,0,21100,0.3984375,0.115234375,2,1,6,25,2,714.869384765625,739.789001464844,0,1,objects,big,1,1,objects,P,small,VS,O,55,E10,226.958984375
0,0,1,21101,0.59375,0.3203125,3,1,2,15,3,691.261596679688,638.784118652344,1,0,NaN,NaN,1,1,objects,P,small,VS,O,55,E10,226.958984375
1,0,1,21104,2.287109375,0.130859375,4,1,3,16,6,691.638549804688,729.803161621094,0,1,faces,male,1,1,objects,P,small,VS,O,55,E10,226.958984375
2,0,1,21113,3.27734375,0.13671875,5,0,3,16,15,683.809936523438,750.100646972656,0,1,faces,male,1,1,objects,P,small,VS,O,55,E10,226.958984375
1,0,1,21114,3.537109375,0.20703125,6,0,8,33,16,888.522705078125,636.242065429688,0,1,faces,female,1,1,objects,P,small,VS,O,55,E10,226.958984375
2,0,1,21116,3.861328125,0.126953125,7,0,8,33,18,903.177673339844,629.436767578125,0,1,faces,female,1,1,objects,P,small,VS,O,55,E10,226.958984375
0,1,0,21136,0.671875,0.1875,1,1,3,16,4,696.219543457031,743.570617675781,0,1,faces,male,1,1,objects,P,big,VS,O,56,E10,231.158203125
0,1,0,21138,1.189453125,0.26953125,2,1,7,42,6,1007.0498046875,654.399108886719,0,1,objects,small,1,1,objects,P,big,VS,O,56,E10,231.158203125
1,0,0,21140,1.7265625,0.234375,3,1,14,80,8,1367.173828125,853.639526367188,1,0,NaN,NaN,1,1,objects,P,big,VS,O,56,E10,231.158203125
2,0,1,21145,2.748046875,0.150390625,4,1,14,80,13,1383.03015136719,859.160888671875,1,0,NaN,NaN,1,1,objects,P,big,VS,O,56,E10,231.158203125
0,1,1,21167,0.650390625,0.1328125,1,1,4,24,4,761.347595214844,674.490539550781,0,1,faces,female,0,0,faces,A,female,EX,I,57,E10,235.357421875
0,1,0,21169,1.134765625,0.12109375,2,1,5,26,6,759.272399902344,876.285095214844,0,1,objects,small,0,0,faces,A,female,EX,I,57,E10,235.357421875
0,1,1,21172,1.443359375,0.10546875,3,1,8,36,9,872.025085449219,962.806274414062,0,1,faces,male,0,0,faces,A,female,EX,I,57,E10,235.357421875
1,1,1,21181,2.927734375,0.21875,4,1,11,65,18,1293.14001464844,253.478424072266,0,1,objects,big,0,0,faces,A,female,EX,I,57,E10,235.357421875
2,1,1,21183,3.23046875,0.275390625,5,0,11,65,20,1307.85729980469,252.044387817383,0,1,objects,big,0,0,faces,A,female,EX,I,57,E10,235.357421875
0,1,1,21185,3.806640625,0.109375,6,0,7,31,22,897.515075683594,448.205993652344,0,1,faces,male,0,0,faces,A,female,EX,I,57,E10,235.357421875
0,1,1,21211,0.4296875,0.16796875,1,1,6,24,3,727.703857421875,628.776000976562,0,1,faces,female,0,1,faces,A,male,VS,F,58,E10,239.556640625
1,1,0,21213,0.798828125,0.197265625,2,1,8,52,5,1077.57995605469,784.501770019531,0,1,objects,small,0,1,faces,A,male,VS,F,58,E10,239.556640625
1,1,0,21217,1.609375,0.134765625,3,1,13,66,9,1298.13244628906,350.521301269531,0,1,objects,big,0,1,faces,A,male,VS,F,58,E10,239.556640625
1,1,0,21219,1.93359375,0.115234375,4,1,14,74,11,1385.85290527344,282.505737304688,0,1,faces,female,0,1,faces,A,male,VS,F,58,E10,239.556640625
0,1,0,21220,2.177734375,0.142578125,5,0,4,12,12,690.91015625,352.483245849609,0,1,faces,female,0,1,faces,A,male,VS,F,58,E10,239.556640625
0,1,0,21222,2.56640625,0.123046875,6,0,3,11,14,633.672790527344,190.644378662109,0,1,faces,male,0,1,faces,A,male,VS,F,58,E10,239.556640625
2,1,0,21224,3.0390625,0.171875,7,0,13,66,16,1306.25964355469,291.452270507812,0,1,objects,big,0,1,faces,A,male,VS,F,58,E10,239.556640625
2,1,0,21225,3.23046875,0.10546875,8,0,14,74,17,1310.68017578125,272.471710205078,0,1,faces,female,0,1,faces,A,male,VS,F,58,E10,239.556640625
2,1,0,21228,3.892578125,0.123046875,9,0,8,52,20,1082.3017578125,783.42333984375,0,1,objects,small,0,1,faces,A,male,VS,F,58,E10,239.556640625
0,1,0,21247,0.970703125,0.20703125,1,1,9,33,4,834.957885742188,674.268676757812,0,1,faces,female,0,1,objects,A,big,VS,O,59,E10,243.755859375
0,1,0,21249,1.353515625,0.134765625,2,1,5,12,6,666.662109375,345.673095703125,0,1,faces,female,0,1,objects,A,big,VS,O,59,E10,243.755859375
0,1,0,21250,1.57421875,0.296875,3,1,2,2,7,608.403930664062,232.636764526367,0,1,objects,small,0,1,objects,A,big,VS,O,59,E10,243.755859375
0,1,0,21252,2.125,0.193359375,4,1,13,67,9,1288.61376953125,474.580810546875,0,1,objects,big,0,1,objects,A,big,VS,O,59,E10,243.755859375
0,1,0,21267,0.326171875,0.205078125,1,1,8,33,1,905.097778320312,637.797912597656,0,1,faces,female,0,1,faces,A,female,VS,I,60,E10,247.955078125
0,1,0,21271,1.28125,0.283203125,2,1,10,39,5,996.097290039062,339.818450927734,0,1,faces,female,0,1,faces,A,female,VS,I,60,E10,247.955078125
0,1,0,21272,1.62890625,0.41796875,3,1,5,13,6,697.130554199219,444.002197265625,0,1,faces,male,0,1,faces,A,female,VS,I,60,E10,247.955078125
0,1,0,21273,2.265625,0.2109375,4,1,2,8,7,599.181213378906,832.354431152344,0,1,faces,male,0,1,faces,A,female,VS,I,60,E10,247.955078125
0,1,0,21274,2.501953125,0.158203125,5,0,3,9,8,552.605285644531,930.480529785156,0,1,faces,female,0,1,faces,A,female,VS,I,60,E10,247.955078125
0,1,0,21282,3.828125,0.21875,6,0,12,49,16,1107.17944335938,441.45166015625,0,1,faces,female,0,1,faces,A,female,VS,I,60,E10,247.955078125
0,1,1,21300,0.4765625,0.19921875,1,1,7,34,3,880.667419433594,732.313659667969,0,1,faces,male,0,1,faces,A,female,VS,F,61,E10,252.154296875
1,1,0,21304,1.27734375,0.173828125,2,1,13,74,7,1407.57446289062,219.018936157227,0,1,faces,female,0,1,faces,A,female,VS,F,61,E10,252.154296875
1,1,0,21305,1.4765625,0.306640625,3,1,12,73,8,1326.93505859375,179.658309936523,0,1,faces,female,0,1,faces,A,female,VS,F,61,E10,252.154296875
2,1,0,21307,2.123046875,0.25390625,4,1,12,73,10,1328.05603027344,171.399765014648,0,1,faces,female,0,1,faces,A,female,VS,F,61,E10,252.154296875
2,1,0,21308,2.416015625,0.275390625,5,0,13,74,11,1408.93444824219,246.302474975586,0,1,faces,female,0,1,faces,A,female,VS,F,61,E10,252.154296875
0,1,0,21312,3.35546875,0.125,6,0,4,22,15,804.947387695312,450.469207763672,0,1,faces,female,0,1,faces,A,female,VS,F,61,E10,252.154296875
0,1,0,21313,3.517578125,0.21484375,7,0,2,4,16,582.562316894531,467.626739501953,0,1,faces,male,0,1,faces,A,female,VS,F,61,E10,252.154296875
0,1,0,21343,1.642578125,0.205078125,1,1,10,39,7,1008.32568359375,373.7138671875,0,1,objects,small,0,1,faces,A,male,EX,I,62,E10,256.353515625
1,1,0,21344,1.896484375,0.16796875,2,1,15,74,8,1311.83996582031,276.980682373047,0,1,faces,male,0,1,faces,A,male,EX,I,62,E10,256.353515625
0,1,0,21345,2.091796875,0.357421875,3,1,13,65,9,1226.91625976562,272.106353759766,0,1,objects,big,0,1,faces,A,male,EX,I,62,E10,256.353515625
2,1,0,21348,2.923828125,0.28515625,4,1,15,74,12,1316.32678222656,273.000518798828,0,1,faces,male,0,1,faces,A,male,EX,I,62,E10,256.353515625
0,1,0,21541,0.5703125,0.171875,1,1,11,60,3,1174.12243652344,673.059143066406,0,1,objects,big,1,1,faces,P,female,VS,F,97,E10,403.326171875
1,1,0,21542,0.77734375,0.15234375,2,1,13,69,4,1287.8818359375,640.668701171875,1,0,NaN,NaN,1,1,faces,P,female,VS,F,97,E10,403.326171875
0,1,0,21543,0.98046875,0.193359375,3,1,8,51,5,1070.57080078125,654.335083007812,0,1,faces,male,1,1,faces,P,female,VS,F,97,E10,403.326171875
2,1,1,21544,1.212890625,0.16015625,4,1,13,69,6,1291.60095214844,661.3271484375,1,0,NaN,NaN,1,1,faces,P,female,VS,F,97,E10,403.326171875
0,0,1,21546,1.833984375,0.431640625,5,0,12,68,8,1267.09106445312,581.654907226562,0,1,faces,female,1,1,faces,P,female,VS,F,97,E10,403.326171875
3,0,1,21548,2.70703125,0.49609375,6,0,13,69,10,1260.29846191406,654.950988769531,1,0,NaN,NaN,1,1,faces,P,female,VS,F,97,E10,403.326171875
0,1,0,21556,0.59765625,0.197265625,1,1,5,31,3,874.883483886719,484.435607910156,0,1,faces,male,1,1,faces,P,male,VS,F,98,E10,407.525390625
0,1,1,21557,0.86328125,0.1484375,2,1,14,79,4,1329.58874511719,782.750183105469,0,1,faces,female,1,1,faces,P,male,VS,F,98,E10,407.525390625
0,1,0,21559,1.166015625,0.2265625,3,1,10,71,6,1306.45434570312,857.934448242188,0,1,faces,female,1,1,faces,P,male,VS,F,98,E10,407.525390625
0,0,0,21560,1.46875,0.771484375,4,1,15,80,7,1388.81616210938,860.298034667969,1,0,NaN,NaN,1,1,faces,P,male,VS,F,98,E10,407.525390625
0,0,1,21562,2.458984375,0.158203125,5,0,13,77,9,1346.13354492188,526.269653320312,0,1,faces,female,1,1,faces,P,male,VS,F,98,E10,407.525390625
0,0,0,21565,2.98046875,0.205078125,6,0,11,73,12,1374.40356445312,174.196868896484,0,1,objects,big,1,1,faces,P,male,VS,F,98,E10,407.525390625
0,0,0,21566,3.2421875,0.162109375,7,0,8,46,13,1080.69384765625,184.231628417969,0,1,faces,male,1,1,faces,P,male,VS,F,98,E10,407.525390625
0,0,0,21569,3.91796875,0.4765625,8,0,7,43,16,975.834228515625,737.661071777344,0,1,faces,male,1,1,faces,P,male,VS,F,98,E10,407.525390625
1,1,0,21580,1.41796875,0.3515625,1,1,9,49,3,1063.34716796875,464.35791015625,0,1,faces,female,0,1,faces,A,female,EX,F,99,E10,411.724609375
0,1,0,21581,1.806640625,0.16796875,2,1,10,50,4,1086.30517578125,553.227722167969,0,1,faces,male,0,1,faces,A,female,EX,F,99,E10,411.724609375
0,1,0,21582,2.005859375,0.359375,3,1,6,41,5,963.623962402344,568.384094238281,0,1,objects,small,0,1,faces,A,female,EX,F,99,E10,411.724609375
2,1,1,21583,2.404296875,0.669921875,4,1,9,49,6,1088.29602050781,462.078887939453,0,1,faces,female,0,1,faces,A,female,EX,F,99,E10,411.724609375
0,1,0,21595,0.251953125,0.16015625,1,1,9,50,2,1012.55126953125,553.63427734375,0,1,objects,big,1,1,faces,P,male,VS,F,100,E10,415.923828125
0,1,1,21596,0.44140625,0.134765625,2,1,8,49,3,1043.88342285156,487.279602050781,0,1,faces,male,1,1,faces,P,male,VS,F,100,E10,415.923828125
1,1,0,21598,0.802734375,0.146484375,3,1,11,56,5,1161.30932617188,275.614288330078,1,0,NaN,NaN,1,1,faces,P,male,VS,F,100,E10,415.923828125
0,1,1,21599,0.98828125,0.154296875,4,1,13,67,6,1265.82153320312,436.671875,0,1,faces,female,1,1,faces,P,male,VS,F,100,E10,415.923828125
2,1,0,21602,1.50390625,0.19921875,5,0,11,56,9,1136.11083984375,276.45751953125,1,0,NaN,NaN,1,1,faces,P,male,VS,F,100,E10,415.923828125
0,1,0,21603,1.7265625,0.11328125,6,0,7,47,10,1077.65197753906,266.62353515625,0,1,faces,female,1,1,faces,P,male,VS,F,100,E10,415.923828125
3,0,0,21604,1.876953125,0.712890625,7,0,11,56,11,1184.6669921875,281.198669433594,1,0,NaN,NaN,1,1,faces,P,male,VS,F,100,E10,415.923828125
0,0,0,21606,2.87109375,0.146484375,8,0,5,25,13,734.705810546875,783.507263183594,0,1,objects,small,1,1,faces,P,male,VS,F,100,E10,415.923828125
0,0,0,21607,3.041015625,0.251953125,9,0,3,17,14,658.967651367188,860.102600097656,0,1,faces,male,1,1,faces,P,male,VS,F,100,E10,415.923828125
4,0,1,21609,3.533203125,0.35546875,10,0,11,56,16,1165.73608398438,275.246795654297,1,0,NaN,NaN,1,1,faces,P,male,VS,F,100,E10,415.923828125
1,1,0,21618,0.4296875,0.158203125,1,1,6,49,2,1085.90441894531,470.703399658203,0,1,faces,male,0,1,faces,A,female,EX,I,101,E10,420.123046875
1,1,0,21619,0.619140625,0.23046875,2,1,9,58,3,1190.97290039062,483.310699462891,0,1,faces,female,0,1,faces,A,female,EX,I,101,E10,420.123046875
0,1,0,21620,0.8828125,0.205078125,3,1,15,77,4,1318.6611328125,578.725036621094,0,1,objects,small,0,1,faces,A,female,EX,I,101,E10,420.123046875
0,1,0,21621,1.107421875,0.1640625,4,1,12,68,5,1279.39904785156,582.691040039062,0,1,faces,male,0,1,faces,A,female,EX,I,101,E10,420.123046875
2,1,1,21622,1.30859375,0.1875,5,0,9,58,6,1152.99133300781,475.924713134766,0,1,faces,female,0,1,faces,A,female,EX,I,101,E10,420.123046875
0,1,1,21624,1.736328125,0.19921875,6,0,2,14,8,613.324584960938,577.238708496094,0,1,faces,female,0,1,faces,A,female,EX,I,101,E10,420.123046875
0,1,0,21626,2.365234375,0.359375,7,0,1,5,10,583.49365234375,587.837707519531,0,1,objects,small,0,1,faces,A,female,EX,I,101,E10,420.123046875
2,1,1,21628,3.04296875,0.134765625,8,0,6,49,12,1059.98400878906,441.047210693359,0,1,faces,male,0,1,faces,A,female,EX,I,101,E10,420.123046875
1,1,0,21643,0.66015625,0.14453125,1,1,7,41,2,1002.53387451172,588.084350585938,0,1,faces,male,1,0,faces,P,female,VS,I,102,E10,424.322265625
0,1,0,21644,0.8671875,0.16796875,2,1,8,44,3,1010.46600341797,840.830688476562,1,1,faces,male,1,0,faces,P,female,VS,I,102,E10,424.322265625
0,1,0,21645,1.076171875,0.181640625,3,1,13,61,4,1173.27551269531,746.307373046875,0,1,objects,small,1,0,faces,P,female,VS,I,102,E10,424.322265625
1,1,0,21646,1.2890625,0.169921875,4,1,11,54,5,1077.98254394531,899.953125,0,1,faces,male,1,0,faces,P,female,VS,I,102,E10,424.322265625
0,1,1,21647,1.4765625,0.146484375,5,0,10,53,6,1089.12487792969,882.026977539062,1,0,NaN,NaN,1,0,faces,P,female,VS,I,102,E10,424.322265625
2,0,0,21649,1.931640625,0.16796875,6,0,11,54,8,1080.80322265625,919.803588867188,0,1,faces,male,1,0,faces,P,female,VS,I,102,E10,424.322265625
0,0,0,21651,2.314453125,0.224609375,7,0,6,30,10,839.714599609375,361.850463867188,0,1,faces,female,1,0,faces,P,female,VS,I,102,E10,424.322265625
2,0,0,21652,2.576171875,0.26171875,8,0,7,41,11,992.499877929688,540.0576171875,0,1,faces,male,1,0,faces,P,female,VS,I,102,E10,424.322265625
0,0,1,21654,3.1484375,0.318359375,9,0,3,11,13,701.71435546875,248.2001953125,0,1,faces,female,1,0,faces,P,female,VS,I,102,E10,424.322265625
1,1,0,21666,0.275390625,0.125,1,1,9,58,1,1138.96325683594,480.318115234375,0,1,faces,male,1,0,objects,P,big,VS,O,103,E10,428.521484375
0,1,0,21668,0.6171875,0.162109375,2,1,5,22,3,761.009765625,448.771942138672,0,1,objects,small,1,0,objects,P,big,VS,O,103,E10,428.521484375
2,1,0,21670,1.009765625,0.1796875,3,1,9,58,5,1111.03247070312,460.630737304688,0,1,faces,male,1,0,objects,P,big,VS,O,103,E10,428.521484375
0,1,1,21671,1.234375,0.171875,4,1,13,75,6,1356.38293457031,337.295196533203,0,1,objects,big,1,0,objects,P,big,VS,O,103,E10,428.521484375
0,1,0,21674,1.9296875,0.166015625,5,0,14,80,9,1382.86413574219,835.492492675781,0,1,faces,male,1,0,objects,P,big,VS,O,103,E10,428.521484375
3,1,0,21677,2.5234375,0.1328125,6,0,9,58,12,1150.08740234375,459.392974853516,0,1,faces,male,1,0,objects,P,big,VS,O,103,E10,428.521484375
0,1,0,21678,2.685546875,0.13671875,7,0,10,60,13,1148.07751464844,630.270324707031,1,0,NaN,NaN,1,0,objects,P,big,VS,O,103,E10,428.521484375
0,1,0,21681,3.21484375,0.142578125,8,0,4,11,16,695.822448730469,281.004272460938,0,1,faces,male,1,0,objects,P,big,VS,O,103,E10,428.521484375
0,1,1,21683,3.595703125,0.162109375,9,0,3,8,18,594.073364257812,830.051513671875,0,1,faces,female,1,0,objects,P,big,VS,O,103,E10,428.521484375
0,1,1,21698,0.26171875,0.13671875,1,1,5,41,1,922.750305175781,547.108947753906,0,1,faces,male,0,1,objects,A,big,EX,O,104,E10,432.720703125
0,1,0,21702,2.669921875,0.31640625,2,1,15,76,5,1394.01416015625,457.823303222656,0,1,faces,male,0,1,objects,A,big,EX,O,104,E10,432.720703125
0,1,1,21704,3.3125,0.177734375,3,1,7,48,7,1091.83020019531,364.332336425781,0,1,objects,small,0,1,objects,A,big,EX,O,104,E10,432.720703125
0,1,1,21706,3.7109375,0.251953125,4,1,4,37,9,977.003967285156,166.994049072266,0,1,faces,female,0,1,objects,A,big,EX,O,104,E10,432.720703125
0,1,0,21718,0.04296875,0.15625,1,1,4,34,1,873.929870605469,722.222229003906,0,1,faces,male,1,1,faces,P,female,VS,F,105,E10,436.919921875
0,1,0,21720,0.373046875,0.2109375,2,1,5,35,3,865.450805664062,816.205749511719,0,1,faces,male,1,1,faces,P,female,VS,F,105,E10,436.919921875
0,1,0,21723,0.984375,0.181640625,3,1,9,61,6,1191.88793945312,781.44873046875,0,1,faces,female,1,1,faces,P,female,VS,F,105,E10,436.919921875
0,0,1,21724,1.197265625,0.228515625,4,1,7,52,7,1066.6474609375,787.312561035156,1,0,NaN,NaN,1,1,faces,P,female,VS,F,105,E10,436.919921875
0,0,1,21726,2.1015625,0.234375,5,0,8,53,9,1077.06042480469,841.030822753906,0,1,faces,female,1,1,faces,P,female,VS,F,105,E10,436.919921875
1,1,0,21735,0.431640625,0.15625,1,1,7,39,2,982.02001953125,372.978973388672,0,1,faces,male,0,1,faces,A,female,VS,F,106,E10,441.119140625
0,1,0,21736,0.654296875,0.244140625,2,1,1,4,3,557.262145996094,463.87646484375,0,1,faces,female,0,1,faces,A,female,VS,F,106,E10,441.119140625
0,1,0,21739,1.376953125,0.326171875,3,1,10,64,6,1270.00390625,187.921234130859,0,1,faces,female,0,1,faces,A,female,VS,F,106,E10,441.119140625
0,1,0,21741,1.82421875,0.16796875,4,1,11,66,8,1257.01611328125,345.334167480469,0,1,faces,male,0,1,faces,A,female,VS,F,106,E10,441.119140625
0,1,0,21742,2.05859375,0.21484375,5,0,12,69,9,1273.72778320312,679.268920898438,0,1,objects,big,0,1,faces,A,female,VS,F,106,E10,441.119140625
0,1,0,21743,2.333984375,0.197265625,6,0,13,71,10,1292.99670410156,854.551574707031,0,1,faces,female,0,1,faces,A,female,VS,F,106,E10,441.119140625
0,1,0,21744,2.6015625,0.1484375,7,0,4,26,11,798.787414550781,881.44677734375,0,1,objects,big,0,1,faces,A,female,VS,F,106,E10,441.119140625
0,1,0,21745,2.78515625,0.154296875,8,0,6,35,12,887.668823242188,872.043212890625,0,1,faces,female,0,1,faces,A,female,VS,F,106,E10,441.119140625
0,1,1,21746,2.984375,0.197265625,9,0,3,22,13,804.537414550781,466.875091552734,0,1,objects,small,0,1,faces,A,female,VS,F,106,E10,441.119140625
2,1,1,21749,3.5,0.1953125,10,0,7,39,16,985.565856933594,381.041198730469,0,1,faces,male,0,1,faces,A,female,VS,F,106,E10,441.119140625
0,1,0,21763,0.224609375,0.1640625,1,1,7,41,1,998.387451171875,557.885803222656,0,1,objects,small,1,1,objects,P,big,VS,O,107,E10,445.318359375
0,1,0,21764,0.41796875,0.1953125,2,1,11,51,2,1094.39453125,660.072021484375,0,1,objects,small,1,1,objects,P,big,VS,O,107,E10,445.318359375
0,1,0,21766,0.947265625,0.14453125,3,1,10,47,4,1044.56359863281,287.56689453125,0,1,objects,big,1,1,objects,P,big,VS,O,107,E10,445.318359375
0,1,0,21767,1.15234375,0.251953125,4,1,13,68,5,1279.13330078125,555.22705078125,0,1,objects,small,1,1,objects,P,big,VS,O,107,E10,445.318359375
0,1,0,21768,1.478515625,0.208984375,5,0,4,20,6,805.15625,282.407867431641,0,1,faces,male,1,1,objects,P,big,VS,O,107,E10,445.318359375
1,0,0,21769,1.755859375,0.20703125,6,0,2,6,7,564.357116699219,646.65185546875,1,0,NaN,NaN,1,1,objects,P,big,VS,O,107,E10,445.318359375
0,0,0,21770,2.03125,0.30859375,7,0,9,45,8,921.059753417969,989.001159667969,0,1,faces,female,1,1,objects,P,big,VS,O,107,E10,445.318359375
2,0,0,21772,2.595703125,0.212890625,8,0,2,6,10,567.602905273438,686.405395507812,1,0,NaN,NaN,1,1,objects,P,big,VS,O,107,E10,445.318359375
3,0,0,21774,3.97265625,0.40625,9,0,2,6,12,575.099060058594,689.786437988281,1,0,NaN,NaN,1,1,objects,P,big,VS,O,107,E10,445.318359375
1,1,1,21787,0.259765625,0.25390625,1,1,12,50,1,1060.76550292969,513.493225097656,0,1,faces,male,0,1,faces,A,female,VS,I,108,E10,449.517578125
0,1,0,21789,0.765625,0.146484375,2,1,4,22,3,796.807495117188,483.044311523438,0,1,faces,female,0,1,faces,A,female,VS,I,108,E10,449.517578125
0,1,0,21790,0.94140625,0.193359375,3,1,6,30,4,901.961120605469,386.128540039062,0,1,objects,small,0,1,faces,A,female,VS,I,108,E10,449.517578125
0,1,0,21795,1.91015625,0.146484375,4,1,7,36,9,878.683837890625,968.308837890625,0,1,faces,female,0,1,faces,A,female,VS,I,108,E10,449.517578125
2,1,1,21797,2.298828125,0.158203125,5,0,12,50,11,1059.30847167969,537.317626953125,0,1,faces,male,0,1,faces,A,female,VS,I,108,E10,449.517578125
0,1,0,21799,2.671875,0.119140625,6,0,9,42,13,969.555786132812,682.856689453125,0,1,faces,male,0,1,faces,A,female,VS,I,108,E10,449.517578125
0,1,0,21800,2.857421875,0.19140625,7,0,10,47,14,1033.90612792969,283.858123779297,0,1,faces,female,0,1,faces,A,female,VS,I,108,E10,449.517578125
0,1,0,21801,3.083984375,0.1328125,8,0,11,48,15,1082.69885253906,309.377624511719,0,1,faces,female,0,1,faces,A,female,VS,I,108,E10,449.517578125
0,1,1,21818,0.220703125,0.173828125,1,1,12,59,1,1193.75109863281,534.474243164062,0,1,objects,small,0,1,faces,A,male,VS,F,109,E10,453.716796875
0,1,0,21820,0.630859375,0.126953125,2,1,11,58,3,1161.65112304688,420.675628662109,0,1,faces,male,0,1,faces,A,male,VS,F,109,E10,453.716796875
1,1,0,21823,1.357421875,0.16796875,3,1,6,24,6,786.081420898438,666.610717773438,0,1,faces,female,0,1,faces,A,male,VS,F,109,E10,453.716796875
0,1,1,21824,1.55859375,0.123046875,4,1,7,25,7,770.361450195312,719.787902832031,0,1,faces,female,0,1,faces,A,male,VS,F,109,E10,453.716796875
1,1,1,21827,2.080078125,0.126953125,5,0,8,36,10,826.771728515625,903.686279296875,0,1,faces,male,0,1,faces,A,male,VS,F,109,E10,453.716796875
2,1,0,21830,2.53515625,0.1796875,6,0,6,24,13,781.302551269531,683.721557617188,0,1,faces,female,0,1,faces,A,male,VS,F,109,E10,453.716796875
2,1,1,21833,3.1875,0.138671875,7,0,8,36,16,854.167907714844,977.466796875,0,1,faces,male,0,1,faces,A,male,VS,F,109,E10,453.716796875
0,1,1,21835,3.537109375,0.173828125,8,0,5,23,18,742.324096679688,566.227600097656,0,1,objects,big,0,1,faces,A,male,VS,F,109,E10,453.716796875
0,1,0,21837,3.921875,0.162109375,9,0,13,60,20,1171.15014648438,627.937927246094,0,1,faces,female,0,1,faces,A,male,VS,F,109,E10,453.716796875
0,1,0,21851,0.912109375,0.109375,1,1,3,30,4,884.151428222656,385.785797119141,0,1,objects,big,0,1,objects,A,big,VS,O,110,E10,457.916015625
0,1,0,21852,1.09375,0.1484375,2,1,7,56,5,1196.2919921875,255.933883666992,0,1,faces,male,0,1,objects,A,big,VS,O,110,E10,457.916015625
0,1,1,21854,1.50390625,0.140625,3,1,12,70,7,1246.10400390625,722.689636230469,0,1,faces,female,0,1,objects,A,big,VS,O,110,E10,457.916015625
0,1,0,21858,2.22265625,0.169921875,4,1,2,9,11,586.290405273438,980.144958496094,0,1,faces,male,0,1,objects,A,big,VS,O,110,E10,457.916015625
0,1,0,21859,2.470703125,0.197265625,5,0,10,63,12,1152.88757324219,910.089599609375,0,1,faces,female,0,1,objects,A,big,VS,O,110,E10,457.916015625
0,1,0,21860,2.826171875,0.1640625,6,0,1,4,13,577.518249511719,488.135284423828,0,1,faces,female,0,1,objects,A,big,VS,O,110,E10,457.916015625
0,1,0,21864,3.70703125,0.283203125,7,0,11,69,17,1269.0537109375,686.39111328125,0,1,faces,male,0,1,objects,A,big,VS,O,110,E10,457.916015625
1,1,0,21877,0.39453125,0.169921875,1,1,8,33,2,829.773376464844,648.200134277344,0,1,faces,male,0,1,objects,A,small,VS,O,111,E10,462.115234375
1,1,0,21879,0.740234375,0.17578125,2,1,2,8,4,606.508544921875,855.003845214844,0,1,faces,male,0,1,objects,A,small,VS,O,111,E10,462.115234375
0,1,0,21881,1.16796875,0.134765625,3,1,14,63,6,1170.96508789062,921.5693359375,0,1,faces,male,0,1,objects,A,small,VS,O,111,E10,462.115234375
0,1,1,21882,1.376953125,0.197265625,4,1,11,39,7,966.89990234375,301.1142578125,0,1,faces,female,0,1,objects,A,small,VS,O,111,E10,462.115234375
2,1,0,21885,2.16796875,0.2578125,5,0,8,33,10,884.514282226562,660.626953125,0,1,faces,male,0,1,objects,A,small,VS,O,111,E10,462.115234375
3,1,0,21889,3.021484375,0.388671875,6,0,8,33,14,878.904846191406,665.547607421875,0,1,faces,male,0,1,objects,A,small,VS,O,111,E10,462.115234375
2,1,1,21890,3.470703125,0.234375,7,0,2,8,15,575.154663085938,837.867858886719,0,1,faces,male,0,1,objects,A,small,VS,O,111,E10,462.115234375
0,1,1,21904,0.482421875,0.150390625,1,1,12,70,2,1286.24499511719,759.292785644531,0,1,faces,male,0,1,faces,A,male,EX,F,112,E10,466.314453125
0,1,0,21906,0.818359375,0.154296875,2,1,6,40,4,922.785522460938,417.718933105469,0,1,objects,big,0,1,faces,A,male,EX,F,112,E10,466.314453125
1,1,0,21907,0.998046875,0.158203125,3,1,8,49,5,1016.45922851562,449.695129394531,0,1,faces,male,0,1,faces,A,male,EX,F,112,E10,466.314453125
0,1,1,21908,1.193359375,0.318359375,4,1,5,30,6,858.225280761719,358.515686035156,0,1,objects,small,0,1,faces,A,male,EX,F,112,E10,466.314453125
0,1,0,21911,2.193359375,0.177734375,5,0,2,2,9,594.051879882812,235.415451049805,0,1,faces,female,0,1,faces,A,male,EX,F,112,E10,466.314453125
0,1,1,21912,2.466796875,0.193359375,6,0,14,75,10,1337.00915527344,354.396514892578,0,1,faces,male,0,1,faces,A,male,EX,F,112,E10,466.314453125
2,1,1,21914,3.1953125,0.21484375,7,0,8,49,12,1017.38464355469,425.199645996094,0,1,faces,male,0,1,faces,A,male,EX,F,112,E10,466.314453125
0,1,0,21916,3.73828125,0.380859375,8,0,7,48,14,1097.05310058594,362.829742431641,0,1,faces,female,0,1,faces,A,male,EX,F,112,E10,466.314453125
0,1,1,21927,1.462890625,0.294921875,1,1,4,14,4,677.750427246094,546.592956542969,0,1,objects,small,0,1,faces,A,male,EX,I,113,E10,470.513671875
0,1,1,21929,2.0390625,0.169921875,2,1,3,3,6,608.09521484375,376.7138671875,0,1,faces,male,0,1,faces,A,male,EX,I,113,E10,470.513671875
0,1,0,21931,2.41015625,0.333984375,3,1,2,2,8,600.180297851562,267.5078125,0,1,faces,male,0,1,faces,A,male,EX,I,113,E10,470.513671875
0,1,0,21943,0.73828125,0.134765625,1,1,9,18,3,696.259948730469,959.941345214844,0,1,objects,big,0,0,faces,A,male,VS,I,114,E10,474.712890625
0,1,0,21944,0.8984375,0.142578125,2,1,4,9,4,607.353515625,987.365661621094,0,1,faces,male,0,0,faces,A,male,VS,I,114,E10,474.712890625
1,1,0,21946,1.265625,0.1484375,3,1,10,21,6,791.581604003906,371.857940673828,0,1,faces,male,0,0,faces,A,male,VS,I,114,E10,474.712890625
0,1,0,21947,1.443359375,0.158203125,4,1,7,12,7,691.919494628906,313.393859863281,0,1,faces,female,0,0,faces,A,male,VS,I,114,E10,474.712890625
2,1,0,21948,1.62109375,0.181640625,5,0,10,21,8,715.497314453125,293.285888671875,0,1,faces,male,0,0,faces,A,male,VS,I,114,E10,474.712890625
0,1,0,21951,2.2421875,0.1875,6,0,11,49,11,1107.78393554688,462.047698974609,0,1,faces,male,0,0,faces,A,male,VS,I,114,E10,474.712890625
0,1,0,21952,2.470703125,0.193359375,7,0,14,67,12,1305.86193847656,469.762634277344,0,1,faces,female,0,0,faces,A,male,VS,I,114,E10,474.712890625
0,1,0,21955,3.232421875,0.17578125,8,0,8,16,15,668.186645507812,753.534606933594,0,1,faces,female,0,0,faces,A,male,VS,I,114,E10,474.712890625
0,1,0,21956,3.435546875,0.212890625,9,0,3,7,16,576.333618164062,777.483276367188,0,1,faces,female,0,0,faces,A,male,VS,I,114,E10,474.712890625
0,1,0,21967,0.447265625,0.15625,1,1,7,31,1,817.488891601562,488.372161865234,0,1,faces,male,0,1,faces,P,female,VS,I,115,E10,478.912109375
1,1,0,21999,3.396484375,0.17578125,1,1,8,29,15,908.728393554688,272.164337158203,0,1,faces,female,0,1,faces,P,female,VS,I,116,E10,483.111328125
2,1,1,22001,3.708984375,0.19921875,2,1,8,29,17,810.678283691406,280.401397705078,0,1,faces,female,0,1,faces,P,female,VS,I,116,E10,483.111328125
0,1,0,22021,1.29296875,0.154296875,1,1,6,20,6,731.246643066406,219.072814941406,0,1,faces,female,0,1,objects,P,small,VS,O,117,E10,487.310546875
0,1,0,22024,1.861328125,0.16796875,2,1,11,40,9,981.106994628906,391.867767333984,0,1,faces,female,0,1,objects,P,small,VS,O,117,E10,487.310546875
0,1,0,22033,0.474609375,0.18359375,1,1,8,38,2,910.552856445312,289.302154541016,0,1,faces,male,1,0,faces,P,male,VS,I,118,E10,491.509765625
0,1,0,22034,0.701171875,0.146484375,2,1,6,29,3,822.805908203125,214.576126098633,0,1,faces,female,1,0,faces,P,male,VS,I,118,E10,491.509765625
0,1,0,22036,1.16796875,0.109375,3,1,1,2,5,570.287292480469,247.505401611328,0,1,faces,male,1,0,faces,P,male,VS,I,118,E10,491.509765625
0,1,0,22038,1.419921875,0.12109375,4,1,7,33,7,829.810180664062,602.562622070312,1,0,NaN,NaN,1,0,faces,P,male,VS,I,118,E10,491.509765625
0,1,0,22041,2.021484375,0.19140625,5,0,15,69,10,1292.17321777344,660.305786132812,0,1,objects,big,1,0,faces,P,male,VS,I,118,E10,491.509765625
0,1,0,22042,2.244140625,0.1796875,6,0,14,68,11,1270.21606445312,551.99169921875,0,1,faces,female,1,0,faces,P,male,VS,I,118,E10,491.509765625
0,1,0,22045,3.45703125,0.16015625,7,0,12,52,14,1091.21240234375,727.233032226562,0,1,faces,female,1,0,faces,P,male,VS,I,118,E10,491.509765625
0,1,0,22046,3.65234375,0.212890625,8,0,11,50,15,1089.10986328125,545.564697265625,0,1,faces,female,1,0,faces,P,male,VS,I,118,E10,491.509765625
0,1,0,22061,0.572265625,0.185546875,1,1,5,16,3,696.892700195312,748.931640625,0,1,faces,female,1,1,objects,P,small,VS,O,119,E10,495.708984375
1,1,1,22062,0.796875,0.138671875,2,1,9,26,4,717.127502441406,829.033020019531,1,0,NaN,NaN,1,1,objects,P,small,VS,O,119,E10,495.708984375
1,0,1,22064,1.310546875,0.16015625,3,1,7,18,6,672.395141601562,989.30126953125,0,1,objects,small,1,1,objects,P,small,VS,O,119,E10,495.708984375
2,0,0,22067,1.8515625,0.53125,4,1,9,26,9,793.182983398438,880.859008789062,1,0,NaN,NaN,1,1,objects,P,small,VS,O,119,E10,495.708984375
0,0,0,22070,2.716796875,0.11328125,5,0,14,77,12,1390.40966796875,537.426696777344,0,1,objects,small,1,1,objects,P,small,VS,O,119,E10,495.708984375
0,0,0,22073,3.34375,0.162109375,6,0,3,6,15,588.081970214844,675.282165527344,0,1,faces,female,1,1,objects,P,small,VS,O,119,E10,495.708984375
3,0,0,22074,3.544921875,0.20703125,7,0,9,26,16,720.051818847656,818.384704589844,1,0,NaN,NaN,1,1,objects,P,small,VS,O,119,E10,495.708984375
2,0,0,22075,3.78125,0.15234375,8,0,7,18,17,701.0927734375,893.350463867188,0,1,objects,small,1,1,objects,P,small,VS,O,119,E10,495.708984375
1,1,0,22085,0.294921875,0.173828125,1,1,10,43,2,981.633544921875,735.491027832031,0,1,faces,male,0,1,objects,A,small,EX,O,120,E10,499.908203125
0,1,0,22086,0.52734375,0.189453125,2,1,12,50,3,1031.65112304688,546.199768066406,0,1,objects,small,0,1,objects,A,small,EX,O,120,E10,499.908203125
0,1,0,22087,0.74609375,0.24609375,3,1,8,40,4,967.873352050781,490.149810791016,0,1,faces,female,0,1,objects,A,small,EX,O,120,E10,499.908203125
0,1,0,22090,1.533203125,0.21875,4,1,14,66,7,1267.046875,380.566070556641,0,1,objects,small,0,1,objects,A,small,EX,O,120,E10,499.908203125
0,1,1,22091,1.798828125,0.166015625,5,0,5,31,8,906.270751953125,474.673217773438,0,1,faces,male,0,1,objects,A,small,EX,O,120,E10,499.908203125
0,1,0,22093,2.16015625,0.265625,6,0,4,30,10,880.061401367188,380.624237060547,0,1,faces,male,0,1,objects,A,small,EX,O,120,E10,499.908203125
0,1,0,22094,2.45703125,0.2265625,7,0,3,29,11,884.092346191406,280.613220214844,0,1,faces,male,0,1,objects,A,small,EX,O,120,E10,499.908203125
2,1,0,22097,3.29296875,0.16796875,8,0,10,43,14,910.890197753906,703.936706542969,0,1,faces,male,0,1,objects,A,small,EX,O,120,E10,499.908203125
0,1,0,22098,3.48828125,0.17578125,9,0,6,34,15,886.691650390625,786.369201660156,0,1,objects,big,0,1,objects,A,small,EX,O,120,E10,499.908203125
0,1,0,22109,0.22265625,0.130859375,1,1,5,32,1,891.379821777344,562.71337890625,0,1,objects,small,1,0,faces,P,male,VS,I,121,E10,504.107421875
1,1,1,22110,0.3828125,0.185546875,2,1,8,43,2,929.567932128906,708.492492675781,0,1,faces,female,1,0,faces,P,male,VS,I,121,E10,504.107421875
1,1,0,22112,0.787109375,0.166015625,3,1,14,78,4,1355.3583984375,660.590148925781,0,1,objects,big,1,0,faces,P,male,VS,I,121,E10,504.107421875
0,1,0,22114,1.25390625,0.19140625,4,1,15,79,6,1359.95556640625,721.939880371094,1,0,NaN,NaN,1,0,faces,P,male,VS,I,121,E10,504.107421875
0,1,1,22115,1.5234375,0.12109375,5,0,13,74,7,1394.65844726562,233.910827636719,0,1,faces,male,1,0,faces,P,male,VS,I,121,E10,504.107421875
2,1,0,22117,1.947265625,0.2265625,6,0,14,78,9,1335.54040527344,603.278930664062,0,1,objects,big,1,0,faces,P,male,VS,I,121,E10,504.107421875
0,1,1,22118,2.236328125,0.146484375,7,0,9,51,10,1024.39990234375,638.280090332031,0,1,faces,female,1,0,faces,P,male,VS,I,121,E10,504.107421875
2,1,0,22120,2.533203125,0.162109375,8,0,8,43,12,935.477233886719,705.886047363281,0,1,faces,female,1,0,faces,P,male,VS,I,121,E10,504.107421875
0,1,0,22121,2.72265625,0.12109375,9,0,6,34,13,837.16162109375,720.453918457031,0,1,faces,male,1,0,faces,P,male,VS,I,121,E10,504.107421875
0,1,0,22123,3.10546875,0.232421875,10,0,4,27,15,776.591247558594,907.086669921875,0,1,faces,female,1,0,faces,P,male,VS,I,121,E10,504.107421875
0,1,0,22124,3.376953125,0.158203125,11,0,1,9,16,565.45654296875,906.145568847656,0,1,faces,male,1,0,faces,P,male,VS,I,121,E10,504.107421875
0,1,0,22126,3.81640625,0.228515625,12,0,3,22,18,770.5888671875,418.447937011719,0,1,faces,female,1,0,faces,P,male,VS,I,121,E10,504.107421875
0,1,1,22135,0.560546875,0.1328125,1,1,4,13,3,706.490112304688,395.751831054688,0,1,faces,female,0,1,faces,A,female,EX,F,122,E10,508.306640625
0,1,0,22139,1.490234375,1.646484375,2,1,10,38,7,934.433715820312,208.109481811523,0,1,objects,small,0,1,faces,A,female,EX,F,122,E10,508.306640625
0,1,0,22140,3.162109375,0.44140625,3,1,9,29,8,885.138061523438,194.559036254883,0,1,faces,male,0,1,faces,A,female,EX,F,122,E10,508.306640625
0,1,0,22149,0.2109375,0.14453125,1,1,7,42,1,949.088073730469,592.990600585938,0,1,faces,female,0,1,faces,A,female,VS,I,123,E10,512.505859375
0,1,0,22150,0.380859375,0.115234375,2,1,9,51,2,1033.3564453125,605.875915527344,0,1,faces,female,0,1,faces,A,female,VS,I,123,E10,512.505859375
0,1,0,22152,0.69921875,0.15625,3,1,14,76,4,1357.16467285156,412.747314453125,0,1,faces,male,0,1,faces,A,female,VS,I,123,E10,512.505859375
1,1,0,22153,0.91015625,0.25,4,1,11,57,5,1153.01538085938,336.528991699219,0,1,faces,female,0,1,faces,A,female,VS,I,123,E10,512.505859375
0,1,0,22156,1.580078125,0.16796875,5,0,10,53,8,1044.64904785156,792.47021484375,0,1,faces,male,0,1,faces,A,female,VS,I,123,E10,512.505859375
0,1,0,22159,2.138671875,0.25390625,6,0,6,35,11,839.182922363281,816.492919921875,0,1,faces,female,0,1,faces,A,female,VS,I,123,E10,512.505859375
0,1,0,22160,2.453125,0.146484375,7,0,2,6,12,586.492370605469,625.802185058594,0,1,objects,small,0,1,faces,A,female,VS,I,123,E10,512.505859375
0,1,0,22161,2.6328125,0.11328125,8,0,4,15,13,641.649230957031,606.280151367188,0,1,objects,big,0,1,faces,A,female,VS,I,123,E10,512.505859375
0,1,0,22162,2.806640625,0.220703125,9,0,3,9,14,543.664611816406,939.7509765625,0,1,faces,female,0,1,faces,A,female,VS,I,123,E10,512.505859375
0,1,0,22164,3.265625,0.265625,10,0,1,1,16,570.196716308594,134.129089355469,0,1,faces,female,0,1,faces,A,female,VS,I,123,E10,512.505859375
2,1,1,22165,3.623046875,0.138671875,11,0,11,57,17,1191.15905761719,366.622375488281,0,1,faces,female,0,1,faces,A,female,VS,I,123,E10,512.505859375
0,1,0,22177,0.23828125,0.12109375,1,1,7,41,1,955.520568847656,517.646606445312,0,1,faces,male,0,1,objects,A,big,VS,O,124,E10,516.705078125
0,1,1,22179,0.572265625,0.181640625,2,1,15,76,3,1383.79345703125,408.180816650391,0,1,objects,big,0,1,objects,A,big,VS,O,124,E10,516.705078125
0,1,0,22181,0.96484375,0.111328125,3,1,14,75,5,1332.49633789062,324.788421630859,0,1,objects,small,0,1,objects,A,big,VS,O,124,E10,516.705078125
1,1,1,22182,1.125,0.244140625,4,1,6,38,6,993.670532226562,230.660079956055,0,1,objects,small,0,1,objects,A,big,VS,O,124,E10,516.705078125
0,1,0,22187,2.1484375,0.173828125,5,0,1,18,11,690.412902832031,896.258178710938,0,1,faces,male,0,1,objects,A,big,VS,O,124,E10,516.705078125
0,1,0,22189,2.71875,0.16796875,6,0,9,56,13,1129.75939941406,227.906341552734,0,1,faces,male,0,1,objects,A,big,VS,O,124,E10,516.705078125
0,1,0,22190,2.947265625,0.181640625,7,0,4,29,14,860.746704101562,229.751190185547,0,1,faces,male,0,1,objects,A,big,VS,O,124,E10,516.705078125
2,1,0,22191,3.166015625,0.1796875,8,0,6,38,15,974.887756347656,228.871475219727,0,1,objects,small,0,1,objects,A,big,VS,O,124,E10,516.705078125
0,1,0,22205,0.6484375,0.171875,1,1,8,35,4,846.550354003906,821.246032714844,0,1,faces,male,1,1,faces,P,female,VS,F,125,E10,520.904296875
0,1,0,22206,0.8671875,0.1328125,2,1,2,8,5,608.267028808594,798.009155273438,0,1,objects,big,1,1,faces,P,female,VS,F,125,E10,520.904296875
0,1,0,22207,1.029296875,0.15234375,3,1,4,16,6,646.332214355469,700.473510742188,0,1,faces,male,1,1,faces,P,female,VS,F,125,E10,520.904296875
0,1,0,22208,1.208984375,0.10546875,4,1,3,15,7,657.878356933594,613.066833496094,0,1,objects,small,1,1,faces,P,female,VS,F,125,E10,520.904296875
0,1,0,22210,1.53125,0.123046875,5,0,7,31,9,864.944274902344,420.274475097656,0,1,faces,male,1,1,faces,P,female,VS,F,125,E10,520.904296875
0,1,0,22211,1.693359375,0.205078125,6,0,5,20,10,759.097534179688,250.907760620117,0,1,faces,female,1,1,faces,P,female,VS,F,125,E10,520.904296875
0,0,1,22212,1.935546875,0.26171875,7,0,1,2,11,561.119140625,233.399642944336,1,0,NaN,NaN,1,1,faces,P,female,VS,F,125,E10,520.904296875
0,0,1,22224,0.287109375,0.267578125,1,1,10,50,2,1062.95751953125,509.083892822266,1,0,NaN,NaN,1,1,faces,P,female,VS,F,126,E10,525.103515625
1,1,0,22237,0.962890625,0.294921875,1,1,13,69,2,1256.9365234375,601.109741210938,0,1,objects,big,0,1,objects,A,big,EX,O,127,E10,529.302734375
1,1,0,22238,1.291015625,0.31640625,2,1,15,77,3,1354.56689453125,528.086059570312,0,1,objects,big,0,1,objects,A,big,EX,O,127,E10,529.302734375
2,1,0,22240,1.76171875,0.234375,3,1,13,69,5,1239.25390625,610.165771484375,0,1,objects,big,0,1,objects,A,big,EX,O,127,E10,529.302734375
2,1,0,22241,2.029296875,0.580078125,4,1,15,77,6,1345.26220703125,506.484893798828,0,1,objects,big,0,1,objects,A,big,EX,O,127,E10,529.302734375
0,1,1,22242,2.666015625,0.1875,5,0,10,43,7,909.511779785156,745.743713378906,0,1,faces,male,0,1,objects,A,big,EX,O,127,E10,529.302734375
0,1,1,22245,3.169921875,0.3125,6,0,6,16,10,654.687622070312,733.380493164062,0,1,objects,big,0,1,objects,A,big,EX,O,127,E10,529.302734375
1,1,0,22258,0.525390625,0.171875,1,1,6,32,3,842.354248046875,573.234069824219,0,1,faces,male,0,0,faces,P,female,VS,F,128,E10,533.501953125
1,1,1,22262,1.228515625,0.193359375,2,1,13,75,7,1355.22961425781,365.955444335938,0,1,faces,male,0,0,faces,P,female,VS,F,128,E10,533.501953125
0,1,0,22264,1.625,0.171875,3,1,14,76,9,1352.72607421875,402.775573730469,0,1,faces,female,0,0,faces,P,female,VS,F,128,E10,533.501953125
2,1,0,22265,1.826171875,0.271484375,4,1,13,75,10,1344.29125976562,312.363739013672,0,1,faces,male,0,0,faces,P,female,VS,F,128,E10,533.501953125
0,1,0,22266,2.125,0.171875,5,0,12,74,11,1354.64367675781,236.556289672852,0,1,faces,male,0,0,faces,P,female,VS,F,128,E10,533.501953125
0,1,0,22267,2.330078125,0.1484375,6,0,11,64,12,1265.86901855469,162.064666748047,0,1,faces,male,0,0,faces,P,female,VS,F,128,E10,533.501953125
1,1,0,22268,2.544921875,0.203125,7,0,8,37,13,919.251098632812,156.513092041016,0,1,faces,female,0,0,faces,P,female,VS,F,128,E10,533.501953125
0,1,0,22269,2.78125,0.36328125,8,0,5,19,14,753.997253417969,144.688430786133,0,1,faces,male,0,0,faces,P,female,VS,F,128,E10,533.501953125
2,1,0,22270,3.193359375,0.12109375,9,0,8,37,15,966.907348632812,158.980865478516,0,1,faces,female,0,0,faces,P,female,VS,F,128,E10,533.501953125
2,1,1,22271,3.390625,0.150390625,10,0,6,32,16,895.307312011719,585.193359375,0,1,faces,male,0,0,faces,P,female,VS,F,128,E10,533.501953125
0,1,1,22286,0.484375,0.162109375,1,1,6,25,4,710.255432128906,746.089233398438,0,1,faces,female,0,1,faces,A,male,VS,F,129,E10,537.701171875
1,1,0,22287,0.6796875,0.19140625,2,1,9,36,5,901.062194824219,913.025573730469,0,1,faces,female,0,1,faces,A,male,VS,F,129,E10,537.701171875
1,1,1,22288,0.90234375,0.193359375,3,1,7,27,6,738.529052734375,914.68212890625,0,1,faces,female,0,1,faces,A,male,VS,F,129,E10,537.701171875
1,1,0,22290,1.25,0.16015625,4,1,13,62,8,1194.26586914062,802.714477539062,0,1,faces,male,0,1,faces,A,male,VS,F,129,E10,537.701171875
2,1,0,22291,1.482421875,0.138671875,5,0,7,27,9,713.778991699219,903.635314941406,0,1,faces,female,0,1,faces,A,male,VS,F,129,E10,537.701171875
2,1,0,22292,1.69140625,0.142578125,6,0,13,62,10,1192.76281738281,815.865539550781,0,1,faces,male,0,1,faces,A,male,VS,F,129,E10,537.701171875
0,1,1,22294,2.064453125,0.1171875,7,0,14,64,12,1287.62756347656,170.647918701172,0,1,faces,male,0,1,faces,A,male,VS,F,129,E10,537.701171875
0,1,0,22297,2.68359375,0.23828125,8,0,4,20,15,723.668029785156,284.718536376953,0,1,objects,big,0,1,faces,A,male,VS,F,129,E10,537.701171875
2,1,0,22299,3.39453125,0.333984375,9,0,9,36,17,825.7666015625,890.037841796875,0,1,faces,female,0,1,faces,A,male,VS,F,129,E10,537.701171875
3,1,0,22300,3.7578125,0.203125,10,0,7,27,18,709.94921875,904.943298339844,0,1,faces,female,0,1,faces,A,male,VS,F,129,E10,537.701171875
0,1,0,22308,0.44921875,0.24609375,1,1,11,60,1,1130.8125,599.745666503906,0,1,objects,small,1,1,objects,P,small,VS,O,130,E10,541.900390625
0,1,0,22309,0.75,0.232421875,2,1,7,25,2,723.236999511719,747.044799804688,0,1,objects,big,1,1,objects,P,small,VS,O,130,E10,541.900390625
0,1,0,22312,1.41796875,0.1875,3,1,3,19,5,798.658447265625,165.27116394043,0,1,faces,female,1,1,objects,P,small,VS,O,130,E10,541.900390625
0,1,0,22313,1.630859375,0.142578125,4,1,8,28,6,856.823120117188,162.051803588867,1,0,NaN,NaN,1,1,objects,P,small,VS,O,130,E10,541.900390625
0,1,1,22327,0.763671875,0.1484375,1,1,1,7,3,516.557861328125,730.979797363281,1,0,NaN,NaN,1,1,objects,P,big,VS,O,131,E10,546.099609375
0,1,0,22342,0.2109375,0.146484375,1,1,6,32,1,910.411437988281,516.837158203125,0,1,objects,small,0,1,faces,P,male,VS,I,132,E10,550.298828125
0,1,0,22343,0.404296875,0.1953125,2,1,9,48,2,1059.65759277344,347.555480957031,0,1,faces,male,0,1,faces,P,male,VS,I,132,E10,550.298828125
0,1,0,22344,0.65625,0.21875,3,1,1,2,3,605.422973632812,284.188781738281,0,1,faces,female,0,1,faces,P,male,VS,I,132,E10,550.298828125
0,1,0,22345,0.9296875,0.16796875,4,1,5,28,4,846.254699707031,167.912109375,0,1,faces,female,0,1,faces,P,male,VS,I,132,E10,550.298828125
1,1,0,22346,1.16796875,0.171875,5,0,2,6,5,560.682312011719,634.034240722656,0,1,faces,female,0,1,faces,P,male,VS,I,132,E10,550.298828125
0,1,0,22347,1.380859375,0.236328125,6,0,7,35,6,859.250244140625,813.088439941406,0,1,objects,small,0,1,faces,P,male,VS,I,132,E10,550.298828125
0,1,0,22348,1.642578125,0.1484375,7,0,8,44,7,987.660461425781,803.550048828125,0,1,objects,big,0,1,faces,P,male,VS,I,132,E10,550.298828125
0,1,0,22349,1.828125,0.1796875,8,0,11,53,8,1052.62780761719,803.403381347656,0,1,faces,male,0,1,faces,P,male,VS,I,132,E10,550.298828125
2,1,1,22352,2.400390625,0.134765625,9,0,2,6,11,511.111877441406,644.591491699219,0,1,faces,female,0,1,faces,P,male,VS,I,132,E10,550.298828125
0,1,1,22354,2.9140625,0.154296875,10,0,3,12,13,693.368835449219,315.906646728516,0,1,objects,big,0,1,faces,P,male,VS,I,132,E10,550.298828125
0,1,0,22356,3.3203125,0.173828125,11,0,12,65,15,1290.9833984375,255.340347290039,0,1,faces,female,0,1,faces,P,male,VS,I,132,E10,550.298828125
0,1,0,22357,3.53125,0.203125,12,0,13,67,16,1240.54260253906,433.627166748047,0,1,objects,big,0,1,faces,P,male,VS,I,132,E10,550.298828125
0,1,0,22358,3.7734375,0.125,13,0,14,68,17,1234.94152832031,518.711364746094,0,1,faces,female,0,1,faces,P,male,VS,I,132,E10,550.298828125
0,1,0,22369,0.21875,0.171875,1,1,8,32,1,865.148193359375,531.996337890625,0,1,faces,female,0,1,faces,A,male,EX,F,133,E10,554.498046875
0,1,0,22372,1.078125,0.21484375,2,1,12,66,4,1249.08776855469,310.561920166016,0,1,faces,male,0,1,faces,A,male,EX,F,133,E10,554.498046875
1,1,1,22373,1.337890625,0.2734375,3,1,11,60,5,1119.26623535156,614.847961425781,0,1,objects,big,0,1,faces,A,male,EX,F,133,E10,554.498046875
0,1,0,22375,1.875,0.326171875,4,1,15,74,7,1345.2431640625,219.166519165039,0,1,objects,small,0,1,faces,A,male,EX,F,133,E10,554.498046875
0,1,0,22376,2.240234375,0.220703125,5,0,14,73,8,1345.87365722656,153.367492675781,0,1,objects,small,0,1,faces,A,male,EX,F,133,E10,554.498046875
2,1,0,22378,2.6875,0.21484375,6,0,11,60,10,1139.49194335938,613.895568847656,0,1,objects,big,0,1,faces,A,male,EX,F,133,E10,554.498046875
0,1,0,22380,3.154296875,0.30859375,7,0,7,29,12,844.932861328125,237.291213989258,0,1,faces,male,0,1,faces,A,male,EX,F,133,E10,554.498046875
0,1,0,22394,0.259765625,0.173828125,1,1,8,41,2,995.193054199219,551.57666015625,0,1,objects,small,0,1,objects,A,small,VS,O,134,E10,558.697265625
1,1,0,22395,0.50390625,0.251953125,2,1,2,5,3,522.4658203125,583.498291015625,0,1,objects,small,0,1,objects,A,small,VS,O,134,E10,558.697265625
1,1,0,22397,0.9921875,0.1328125,3,1,4,11,5,681.321655273438,231.203125,0,1,faces,female,0,1,objects,A,small,VS,O,134,E10,558.697265625
1,1,0,22398,1.17578125,0.216796875,4,1,11,56,6,1200.87023925781,250.886627197266,0,1,objects,big,0,1,objects,A,small,VS,O,134,E10,558.697265625
2,1,0,22400,1.5703125,0.251953125,5,0,11,56,8,1143.56018066406,230.648208618164,0,1,objects,big,0,1,objects,A,small,VS,O,134,E10,558.697265625
2,1,0,22403,2.40625,0.2734375,6,0,2,5,11,536.33642578125,497.733489990234,0,1,objects,small,0,1,objects,A,small,VS,O,134,E10,558.697265625
0,1,0,22406,3.22265625,0.130859375,7,0,14,71,14,1262.11108398438,791.613952636719,0,1,objects,small,0,1,objects,A,small,VS,O,134,E10,558.697265625
2,1,0,22408,3.671875,0.107421875,8,0,4,11,16,671.201354980469,223.075332641602,0,1,faces,female,0,1,objects,A,small,VS,O,134,E10,558.697265625
0,1,0,22419,0.56640625,0.11328125,1,1,4,35,2,849.681701660156,818.783203125,0,1,faces,female,1,1,faces,P,male,VS,F,135,E10,562.896484375
0,1,0,22420,0.74609375,0.240234375,2,1,2,8,3,540.250305175781,856.794006347656,0,1,faces,male,1,1,faces,P,male,VS,F,135,E10,562.896484375
0,1,0,22422,1.267578125,0.12109375,3,1,13,74,5,1352.44287109375,259.64404296875,0,1,faces,female,1,1,faces,P,male,VS,F,135,E10,562.896484375
0,1,1,22423,1.41796875,0.15625,4,1,10,64,6,1283.44970703125,162.705718994141,1,0,NaN,NaN,1,1,faces,P,male,VS,F,135,E10,562.896484375
0,1,0,22446,0.689453125,0.142578125,1,1,3,25,3,711.4208984375,722.071533203125,0,1,faces,male,1,1,objects,P,small,VS,O,136,E10,567.095703125
1,0,0,22447,0.916015625,0.228515625,2,1,8,47,4,1093.94506835938,222.280120849609,1,0,NaN,NaN,1,1,objects,P,small,VS,O,136,E10,567.095703125
0,0,0,22448,1.875,0.4453125,3,1,6,38,5,935.769287109375,222.216995239258,0,1,faces,male,1,1,objects,P,small,VS,O,136,E10,567.095703125
2,0,0,22449,2.349609375,0.455078125,4,1,8,47,6,1063.12255859375,227.518829345703,1,0,NaN,NaN,1,1,objects,P,small,VS,O,136,E10,567.095703125
0,0,0,22450,2.8515625,0.275390625,5,0,10,56,7,1134.01501464844,227.960083007812,0,1,faces,female,1,1,objects,P,small,VS,O,136,E10,567.095703125
1,1,0,22464,0.52734375,0.208984375,1,1,6,24,3,712.979675292969,628.687255859375,0,1,faces,female,0,1,faces,A,female,VS,F,137,E10,571.294921875
0,1,0,22466,0.97265625,0.259765625,2,1,8,29,5,828.749694824219,239.153228759766,0,1,objects,small,0,1,faces,A,female,VS,F,137,E10,571.294921875
0,1,1,22472,2.2578125,0.11328125,3,1,14,71,11,1223.11547851562,827.670532226562,0,1,faces,female,0,1,faces,A,female,VS,F,137,E10,571.294921875
0,1,0,22475,2.783203125,0.19140625,4,1,3,18,14,617.970397949219,912.429443359375,0,1,faces,female,0,1,faces,A,female,VS,F,137,E10,571.294921875
0,1,0,22476,3.0078125,0.1484375,5,0,1,8,15,515.151489257812,815.891418457031,0,1,objects,big,0,1,faces,A,female,VS,F,137,E10,571.294921875
0,1,0,22477,3.1875,0.2109375,6,0,7,25,16,735.313232421875,708.719055175781,0,1,objects,small,0,1,faces,A,female,VS,F,137,E10,571.294921875
2,1,0,22478,3.42578125,0.13671875,7,0,6,24,17,728.484619140625,624.604614257812,0,1,faces,female,0,1,faces,A,female,VS,F,137,E10,571.294921875
0,1,0,22479,3.642578125,0.158203125,8,0,12,58,18,1135.0732421875,438.628479003906,0,1,objects,big,0,1,faces,A,female,VS,F,137,E10,571.294921875
0,1,0,22480,3.841796875,0.12890625,9,0,13,67,19,1234.36120605469,424.462768554688,0,1,faces,male,0,1,faces,A,female,VS,F,137,E10,571.294921875
1,1,0,22499,0.796875,0.28515625,1,1,8,39,4,935.236206054688,300.482971191406,0,1,objects,small,0,0,faces,A,female,EX,I,138,E10,575.494140625
0,1,1,22500,1.13671875,0.171875,2,1,1,10,5,692.896911621094,149.944625854492,0,1,faces,female,0,0,faces,A,female,EX,I,138,E10,575.494140625
2,1,0,22504,3.740234375,0.20703125,3,1,8,39,9,937.838500976562,299.189208984375,0,1,objects,small,0,0,faces,A,female,EX,I,138,E10,575.494140625
0,1,0,22505,3.9921875,0.46484375,4,1,11,59,10,1125.67858886719,497.469329833984,0,1,objects,big,0,0,faces,A,female,EX,I,138,E10,575.494140625
0,1,0,22517,0.505859375,0.2890625,1,1,5,31,2,828.267761230469,435.715728759766,0,1,objects,small,0,1,objects,A,small,EX,O,139,E10,579.693359375
0,1,0,22518,0.83203125,0.40625,2,1,3,13,3,642.835510253906,403.477111816406,0,1,faces,male,0,1,objects,A,small,EX,O,139,E10,579.693359375
0,1,0,22519,1.28515625,0.224609375,3,1,1,2,4,561.110168457031,227.333190917969,0,1,faces,female,0,1,objects,A,small,EX,O,139,E10,579.693359375
0,1,0,22521,1.779296875,0.212890625,4,1,9,57,6,1136.41760253906,304.270782470703,0,1,faces,female,0,1,objects,A,small,EX,O,139,E10,579.693359375
0,1,0,22522,2.03125,0.455078125,5,0,13,66,7,1244.92126464844,318.784759521484,0,1,faces,male,0,1,objects,A,small,EX,O,139,E10,579.693359375
0,1,0,22523,2.515625,0.326171875,6,0,12,65,8,1229.86291503906,234.157165527344,0,1,faces,female,0,1,objects,A,small,EX,O,139,E10,579.693359375
0,1,0,22524,2.869140625,0.380859375,7,0,15,75,9,1327.86767578125,302.826873779297,0,1,objects,small,0,1,objects,A,small,EX,O,139,E10,579.693359375
1,1,0,22538,0.28125,0.25390625,1,1,6,24,1,808.699951171875,622.402038574219,0,1,faces,female,1,1,faces,P,female,VS,I,140,E10,583.892578125
0,1,0,22539,0.578125,0.1875,2,1,8,35,2,829.237060546875,795.764892578125,0,1,objects,small,1,1,faces,P,female,VS,I,140,E10,583.892578125
0,1,0,22540,0.80859375,0.126953125,3,1,2,8,3,546.010498046875,825.863220214844,1,0,NaN,NaN,1,1,faces,P,female,VS,I,140,E10,583.892578125
0,1,1,22541,0.982421875,0.224609375,4,1,7,33,4,813.60791015625,615.511840820312,0,1,faces,male,1,1,faces,P,female,VS,I,140,E10,583.892578125
2,1,0,22543,1.30859375,0.12890625,5,0,6,24,6,739.896789550781,598.5224609375,0,1,faces,female,1,1,faces,P,female,VS,I,140,E10,583.892578125
0,1,0,22544,1.490234375,0.169921875,6,0,5,21,7,726.675659179688,340.087768554688,0,1,faces,male,1,1,faces,P,female,VS,I,140,E10,583.892578125
1,1,0,22545,1.6875,0.619140625,7,0,3,12,8,651.024780273438,317.683319091797,0,1,faces,male,1,1,faces,P,female,VS,I,140,E10,583.892578125
0,1,0,22546,2.3359375,0.345703125,8,0,1,2,9,571.872192382812,234.39323425293,0,1,faces,female,1,1,faces,P,female,VS,I,140,E10,583.892578125
2,1,0,22547,2.720703125,0.708984375,9,0,3,12,10,665.208740234375,306.344604492188,0,1,faces,male,1,1,faces,P,female,VS,I,140,E10,583.892578125
0,1,0,22550,3.802734375,0.234375,10,0,13,63,13,1129.89404296875,893.275207519531,0,1,faces,female,1,1,faces,P,female,VS,I,140,E10,583.892578125
0,1,0,22560,0.37890625,0.287109375,1,1,6,42,2,928.965881347656,592.761413574219,0,1,faces,female,0,0,faces,A,male,EX,I,141,E10,588.091796875
