refix,pretarget,multifix,urevent,tonset,dur_added,rank,first_rank,stposrel,stposabs,n,x,y,istarget,isdistractor,distractor_cat,ditractor_atr,trial_targetseen,trial_correct,trial_cat,trial_resp,trial_atr,trial_type,trial_cattype,trial_number,trial_subject,trial_bgn_latency
0,1,0,24705,0.5546875,0.193359375,1,1,8,29,2,832.122924804688,276.824829101562,0,1,objects,big,0,1,faces,A,female,VS,I,1,E14,0.201171875
0,1,0,24706,0.783203125,0.474609375,2,1,10,37,3,935.551147460938,158.591094970703,0,1,faces,female,0,1,faces,A,female,VS,I,1,E14,0.201171875
0,1,0,24707,1.29296875,0.11328125,3,1,12,46,4,1050.18103027344,161.909484863281,0,1,faces,female,0,1,faces,A,female,VS,I,1,E14,0.201171875
0,1,0,24709,1.611328125,0.154296875,4,1,13,52,6,1068.77624511719,784.695434570312,0,1,faces,male,0,1,faces,A,female,VS,I,1,E14,0.201171875
0,1,0,24716,2.90234375,0.177734375,5,0,6,15,13,634.746887207031,681.936584472656,0,1,faces,male,0,1,faces,A,female,VS,I,1,E14,0.201171875
0,1,0,24718,3.271484375,0.18359375,6,0,2,4,15,515.938110351562,471.161773681641,0,1,objects,small,0,1,faces,A,female,VS,I,1,E14,0.201171875
0,1,1,24721,3.80078125,0.146484375,7,0,9,33,18,830.845764160156,674.437377929688,0,1,faces,female,0,1,faces,A,female,VS,I,1,E14,0.201171875
0,1,1,24742,0.21484375,0.109375,1,1,5,41,1,985.563415527344,558.392883300781,0,1,faces,male,1,1,objects,P,big,VS,O,2,E14,4.400390625
0,1,0,24745,0.69140625,0.173828125,2,1,3,25,4,778.880432128906,774.622192382812,0,1,objects,small,1,1,objects,P,big,VS,O,2,E14,4.400390625
0,1,0,24748,1.185546875,0.13671875,3,1,2,10,7,624.938537597656,115.462257385254,0,1,faces,male,1,1,objects,P,big,VS,O,2,E14,4.400390625
0,1,0,24749,1.396484375,0.16796875,4,1,12,65,8,1264.81909179688,276.54052734375,0,1,faces,male,1,1,objects,P,big,VS,O,2,E14,4.400390625
0,1,0,24751,1.74609375,0.14453125,5,0,14,76,10,1363.97412109375,469.632507324219,0,1,faces,male,1,1,objects,P,big,VS,O,2,E14,4.400390625
0,1,0,24753,2.060546875,0.171875,6,0,15,80,12,1385.74890136719,880.964904785156,0,1,objects,big,1,1,objects,P,big,VS,O,2,E14,4.400390625
0,0,0,24755,2.44140625,0.546875,7,0,11,58,14,1137.640625,472.986328125,1,0,NaN,NaN,1,1,objects,P,big,VS,O,2,E14,4.400390625
0,0,1,24756,3.04296875,0.1015625,8,0,6,42,15,949.417236328125,633.670593261719,0,1,faces,female,1,1,objects,P,big,VS,O,2,E14,4.400390625
0,0,1,24758,3.376953125,0.181640625,9,0,9,52,17,1027.98461914062,780.509094238281,0,1,faces,female,1,1,objects,P,big,VS,O,2,E14,4.400390625
0,0,0,24760,3.873046875,0.115234375,10,0,4,39,19,1005.71722412109,382.823150634766,0,1,faces,female,1,1,objects,P,big,VS,O,2,E14,4.400390625
1,1,1,24777,0.43359375,0.142578125,1,1,9,40,3,918.246154785156,449.670654296875,0,1,faces,male,0,0,faces,A,female,EX,F,3,E14,8.599609375
0,1,1,24779,0.8671875,0.107421875,2,1,1,4,5,558.734497070312,448.198913574219,0,1,objects,small,0,0,faces,A,female,EX,F,3,E14,8.599609375
0,1,1,24781,1.15625,0.1015625,3,1,14,76,7,1330.17590332031,475.134826660156,0,1,objects,big,0,0,faces,A,female,EX,F,3,E14,8.599609375
0,1,0,24784,1.755859375,0.16015625,4,1,10,56,10,1133.57531738281,259.357635498047,0,1,faces,male,0,0,faces,A,female,EX,F,3,E14,8.599609375
0,1,0,24786,2.1171875,0.28515625,5,0,3,10,12,612.366943359375,155.514556884766,0,1,faces,male,0,0,faces,A,female,EX,F,3,E14,8.599609375
0,1,0,24788,2.60546875,0.234375,6,0,2,5,14,524.221740722656,577.870666503906,0,1,objects,small,0,0,faces,A,female,EX,F,3,E14,8.599609375
0,1,1,24789,2.900390625,0.1171875,7,0,8,34,15,883.977661132812,710.161193847656,0,1,faces,female,0,0,faces,A,female,EX,F,3,E14,8.599609375
0,1,0,24792,3.453125,0.158203125,8,0,5,21,18,730.093872070312,367.424682617188,0,1,faces,male,0,0,faces,A,female,EX,F,3,E14,8.599609375
2,1,0,24793,3.640625,0.1640625,9,0,9,40,19,966.088745117188,459.897094726562,0,1,faces,male,0,0,faces,A,female,EX,F,3,E14,8.599609375
0,1,1,24815,0.298828125,0.12109375,1,1,3,13,1,651.430603027344,469.371643066406,0,1,faces,male,1,1,objects,P,small,VS,O,4,E14,12.798828125
1,0,1,24818,0.71875,0.255859375,2,1,5,39,4,960.753723144531,343.680236816406,1,0,NaN,NaN,1,1,objects,P,small,VS,O,4,E14,12.798828125
0,0,0,24822,3.181640625,0.29296875,3,1,12,58,8,1148.41870117188,468.982513427734,0,1,faces,female,1,1,objects,P,small,VS,O,4,E14,12.798828125
2,0,0,24823,3.501953125,0.603515625,4,1,5,39,9,936.159790039062,377.911773681641,1,0,NaN,NaN,1,1,objects,P,small,VS,O,4,E14,12.798828125
0,1,1,24843,0.31640625,0.11328125,1,1,10,40,3,927.435363769531,489.946746826172,0,1,faces,male,0,1,faces,A,male,EX,F,5,E14,16.998046875
0,1,0,24846,1.14453125,0.228515625,2,1,9,38,6,943.135681152344,271.312774658203,0,1,objects,small,0,1,faces,A,male,EX,F,5,E14,16.998046875
0,1,1,24847,1.443359375,0.12109375,3,1,13,69,7,1250.5673828125,593.582275390625,0,1,objects,small,0,1,faces,A,male,EX,F,5,E14,16.998046875
0,1,0,24849,1.716796875,0.17578125,4,1,12,68,9,1271.87878417969,562.766906738281,0,1,faces,male,0,1,faces,A,male,EX,F,5,E14,16.998046875
0,1,0,24851,2.083984375,0.267578125,5,0,14,73,11,1357.55224609375,158.617080688477,0,1,faces,female,0,1,faces,A,male,EX,F,5,E14,16.998046875
0,1,1,24852,2.43359375,0.103515625,6,0,2,13,12,657.965454101562,483.088012695312,0,1,objects,small,0,1,faces,A,male,EX,F,5,E14,16.998046875
0,1,0,24854,2.6875,0.201171875,7,0,1,12,14,615.143432617188,357.899322509766,0,1,faces,female,0,1,faces,A,male,EX,F,5,E14,16.998046875
0,1,1,24855,2.912109375,0.150390625,8,0,4,22,15,726.507446289062,445.408020019531,0,1,faces,male,0,1,faces,A,male,EX,F,5,E14,16.998046875
1,1,0,24857,3.333984375,0.13671875,9,0,6,27,17,733.691772460938,922.697448730469,0,1,faces,female,0,1,faces,A,male,EX,F,5,E14,16.998046875
0,1,0,24858,3.48828125,0.26953125,10,0,5,26,18,742.305969238281,875.643798828125,0,1,faces,female,0,1,faces,A,male,EX,F,5,E14,16.998046875
2,1,0,24859,3.791015625,0.205078125,11,0,6,27,19,748.872314453125,983.518310546875,0,1,faces,female,0,1,faces,A,male,EX,F,5,E14,16.998046875
1,1,1,24881,0.333984375,0.119140625,1,1,6,29,2,901.115173339844,286.96826171875,0,1,faces,male,0,0,faces,P,male,VS,I,6,E14,21.197265625
0,1,1,24883,0.712890625,0.126953125,2,1,9,48,4,1018.25085449219,371.719146728516,0,1,faces,male,0,0,faces,P,male,VS,I,6,E14,21.197265625
0,1,1,24886,1.28125,0.134765625,3,1,13,67,7,1272.52648925781,486.087799072266,0,1,faces,female,0,0,faces,P,male,VS,I,6,E14,21.197265625
0,1,0,24888,1.62109375,0.29296875,4,1,15,78,9,1384.31091308594,652.572204589844,0,1,faces,male,0,0,faces,P,male,VS,I,6,E14,21.197265625
0,1,0,24890,2.095703125,0.126953125,5,0,14,72,11,1266.65185546875,957.866271972656,0,1,objects,small,0,0,faces,P,male,VS,I,6,E14,21.197265625
0,1,0,24891,2.265625,0.25,6,0,10,52,12,1059.84362792969,762.552307128906,0,1,faces,female,0,0,faces,P,male,VS,I,6,E14,21.197265625
0,1,0,24892,2.55078125,0.205078125,7,0,11,53,13,1054.06030273438,879.1142578125,0,1,faces,male,0,0,faces,P,male,VS,I,6,E14,21.197265625
0,1,0,24893,2.80078125,0.240234375,8,0,5,18,14,622.094665527344,921.296447753906,0,1,faces,male,0,0,faces,P,male,VS,I,6,E14,21.197265625
2,1,0,24898,3.9296875,0.330078125,9,0,6,29,19,827.348388671875,278.220245361328,0,1,faces,male,0,0,faces,P,male,VS,I,6,E14,21.197265625
0,1,1,24913,0.337890625,0.158203125,1,1,9,42,2,957.154052734375,626.815124511719,0,1,faces,female,1,1,objects,P,big,VS,O,7,E14,25.396484375
0,1,0,24916,0.869140625,0.1953125,2,1,10,60,5,1174.24890136719,682.968566894531,0,1,objects,small,1,1,objects,P,big,VS,O,7,E14,25.396484375
1,1,0,24917,1.107421875,0.134765625,3,1,12,71,6,1310.02673339844,831.246154785156,0,1,objects,small,1,1,objects,P,big,VS,O,7,E14,25.396484375
1,1,0,24918,1.26171875,0.12109375,4,1,11,70,7,1290.69177246094,785.073974609375,0,1,objects,big,1,1,objects,P,big,VS,O,7,E14,25.396484375
2,1,0,24919,1.40234375,0.17578125,5,0,12,71,8,1286.36767578125,846.516479492188,0,1,objects,small,1,1,objects,P,big,VS,O,7,E14,25.396484375
2,1,0,24920,1.599609375,0.34765625,6,0,11,70,9,1282.11108398438,763.650024414062,0,1,objects,big,1,1,objects,P,big,VS,O,7,E14,25.396484375
0,1,0,24921,1.990234375,0.234375,7,0,13,72,10,1272.283203125,960.840881347656,0,1,faces,male,1,1,objects,P,big,VS,O,7,E14,25.396484375
0,0,1,24922,2.29296875,0.216796875,8,0,7,29,11,819.628540039062,283.613403320312,1,0,NaN,NaN,1,1,objects,P,big,VS,O,7,E14,25.396484375
0,0,0,24925,3.330078125,0.123046875,9,0,4,5,14,565.766418457031,528.556945800781,0,1,faces,female,1,1,objects,P,big,VS,O,7,E14,25.396484375
0,0,0,24926,3.474609375,0.265625,10,0,5,13,15,613.846313476562,490.291931152344,0,1,faces,female,1,1,objects,P,big,VS,O,7,E14,25.396484375
1,1,1,24945,0.4296875,0.119140625,1,1,6,33,1,879.747314453125,686.931457519531,0,1,faces,female,1,1,faces,P,male,VS,F,8,E14,29.595703125
0,1,1,24948,0.859375,0.169921875,2,1,11,54,4,1061.18249511719,971.016784667969,0,1,faces,male,1,1,faces,P,male,VS,F,8,E14,29.595703125
0,1,0,24949,1.064453125,0.197265625,3,1,12,63,5,1177.02331542969,963.983703613281,0,1,faces,male,1,1,faces,P,male,VS,F,8,E14,29.595703125
0,1,1,24951,1.4296875,0.115234375,4,1,14,70,7,1274.81359863281,714.386901855469,0,1,faces,male,1,1,faces,P,male,VS,F,8,E14,29.595703125
1,0,1,24952,1.57421875,0.23046875,5,0,13,69,8,1276.87609863281,682.494812011719,1,0,NaN,NaN,1,1,faces,P,male,VS,F,8,E14,29.595703125
0,0,0,24954,2.048828125,0.1328125,6,0,4,30,10,885.546630859375,389.316650390625,0,1,objects,big,1,1,faces,P,male,VS,F,8,E14,29.595703125
0,0,0,24955,2.201171875,0.119140625,7,0,9,39,11,948.11865234375,366.105865478516,0,1,faces,female,1,1,faces,P,male,VS,F,8,E14,29.595703125
0,0,0,24956,2.423828125,0.166015625,8,0,8,38,12,945.878967285156,273.277587890625,0,1,faces,male,1,1,faces,P,male,VS,F,8,E14,29.595703125
2,0,1,24958,2.806640625,0.220703125,9,0,13,69,14,1293.55859375,661.881713867188,1,0,NaN,NaN,1,1,faces,P,male,VS,F,8,E14,29.595703125
0,0,0,24962,3.765625,0.119140625,10,0,2,15,18,687.991882324219,638.029357910156,0,1,objects,big,1,1,faces,P,male,VS,F,8,E14,29.595703125
2,0,0,24963,3.91796875,0.125,11,0,6,33,19,847.988464355469,673.509826660156,0,1,faces,female,1,1,faces,P,male,VS,F,8,E14,29.595703125
0,1,0,24977,0.296875,0.23828125,1,1,11,66,1,1253.49145507812,374.668823242188,0,1,faces,female,0,1,faces,A,male,EX,I,9,E14,33.794921875
0,1,1,24979,0.833984375,0.123046875,2,1,5,14,3,613.627624511719,540.141357421875,0,1,faces,male,0,1,faces,A,male,EX,I,9,E14,33.794921875
0,1,0,24982,1.3515625,0.150390625,3,1,4,11,6,616.290771484375,281.350158691406,0,1,faces,female,0,1,faces,A,male,EX,I,9,E14,33.794921875
0,1,0,24983,1.53515625,0.33203125,4,1,1,2,7,514.063049316406,273.567810058594,0,1,faces,male,0,1,faces,A,male,EX,I,9,E14,33.794921875
0,1,0,24987,2.365234375,0.408203125,5,0,7,42,11,935.020935058594,683.56787109375,0,1,faces,male,0,1,faces,A,male,EX,I,9,E14,33.794921875
0,1,0,24988,2.837890625,0.197265625,6,0,12,68,12,1242.5224609375,575.065307617188,0,1,objects,big,0,1,faces,A,male,EX,I,9,E14,33.794921875
0,1,1,24989,3.068359375,0.208984375,7,0,15,78,13,1359.55456542969,667.597473144531,0,1,faces,male,0,1,faces,A,male,EX,I,9,E14,33.794921875
0,1,0,24992,3.763671875,0.189453125,8,0,10,62,16,1172.06323242188,859.941833496094,0,1,objects,small,0,1,faces,A,male,EX,I,9,E14,33.794921875
0,1,0,24993,3.98046875,0.271484375,9,0,13,70,17,1286.16040039062,755.396667480469,0,1,faces,female,0,1,faces,A,male,EX,I,9,E14,33.794921875
0,1,0,25015,0.3671875,0.15625,1,1,14,67,2,1270.43371582031,455.840576171875,0,1,faces,female,0,1,faces,A,male,VS,I,10,E14,37.994140625
0,1,1,25016,0.5859375,0.130859375,2,1,15,71,3,1271.00988769531,818.845275878906,0,1,faces,female,0,1,faces,A,male,VS,I,10,E14,37.994140625
0,1,1,25018,0.83984375,0.185546875,3,1,13,61,5,1173.98010253906,760.93017578125,0,1,faces,female,0,1,faces,A,male,VS,I,10,E14,37.994140625
0,1,0,25020,1.197265625,0.205078125,4,1,10,43,7,960.880004882812,753.556762695312,0,1,faces,male,0,1,faces,A,male,VS,I,10,E14,37.994140625
0,1,0,25021,1.453125,0.251953125,5,0,12,53,8,1076.15686035156,859.076782226562,0,1,faces,male,0,1,faces,A,male,VS,I,10,E14,37.994140625
0,1,1,25024,2.078125,0.146484375,6,0,2,8,11,546.21728515625,883.644714355469,0,1,faces,male,0,1,faces,A,male,VS,I,10,E14,37.994140625
0,1,0,25026,2.5625,0.16015625,7,0,1,7,13,528.384460449219,784.897888183594,0,1,faces,male,0,1,faces,A,male,VS,I,10,E14,37.994140625
0,1,0,25027,2.755859375,0.171875,8,0,6,15,14,625.263916015625,688.288024902344,0,1,objects,big,0,1,faces,A,male,VS,I,10,E14,37.994140625
0,1,0,25028,2.9765625,0.10546875,9,0,5,14,15,688.973083496094,493.541717529297,0,1,objects,big,0,1,faces,A,male,VS,I,10,E14,37.994140625
0,1,0,25029,3.099609375,0.12109375,10,0,7,22,16,759.416809082031,487.464904785156,0,1,objects,small,0,1,faces,A,male,VS,I,10,E14,37.994140625
0,1,0,25030,3.251953125,0.150390625,11,0,9,31,17,825.251281738281,485.349670410156,0,1,faces,male,0,1,faces,A,male,VS,I,10,E14,37.994140625
0,1,0,25051,0.296875,0.212890625,1,1,10,57,2,1142.31103515625,370.519653320312,0,1,faces,male,0,1,faces,P,female,VS,I,11,E14,42.193359375
1,1,0,25054,0.83203125,0.126953125,2,1,13,69,5,1284.56652832031,679.7744140625,0,1,faces,female,0,1,faces,P,female,VS,I,11,E14,42.193359375
1,1,1,25055,1.033203125,0.107421875,3,1,2,15,6,669.768493652344,651.163879394531,0,1,faces,female,0,1,faces,P,female,VS,I,11,E14,42.193359375
0,1,1,25057,1.671875,0.26171875,4,1,5,32,8,852.753967285156,571.938232421875,0,1,objects,big,0,1,faces,P,female,VS,I,11,E14,42.193359375
2,1,0,25059,2.2109375,0.220703125,5,0,2,15,10,645.161010742188,591.393798828125,0,1,faces,female,0,1,faces,P,female,VS,I,11,E14,42.193359375
0,1,0,25062,2.875,0.224609375,6,0,6,34,13,819.069274902344,789.460266113281,0,1,objects,big,0,1,faces,P,female,VS,I,11,E14,42.193359375
2,1,0,25064,3.341796875,0.466796875,7,0,13,69,15,1258.42822265625,679.302368164062,0,1,faces,female,0,1,faces,P,female,VS,I,11,E14,42.193359375
0,1,0,25065,3.861328125,0.150390625,8,0,15,80,16,1370.01293945312,866.316528320312,0,1,faces,male,0,1,faces,P,female,VS,I,11,E14,42.193359375
1,1,0,25083,0.41796875,0.18359375,1,1,5,21,2,729.376220703125,361.617736816406,0,1,objects,big,0,1,objects,A,big,VS,O,12,E14,46.392578125
1,1,0,25084,0.669921875,0.23046875,2,1,11,43,3,916.909118652344,773.625427246094,0,1,objects,big,0,1,objects,A,big,VS,O,12,E14,46.392578125
1,1,0,25087,1.3046875,0.171875,3,1,8,27,6,734.308349609375,979.291076660156,0,1,faces,male,0,1,objects,A,big,VS,O,12,E14,46.392578125
1,1,0,25088,1.515625,0.1171875,4,1,7,26,7,728.118530273438,819.034057617188,0,1,faces,male,0,1,objects,A,big,VS,O,12,E14,46.392578125
2,1,0,25091,1.958984375,0.12109375,5,0,5,21,10,733.150390625,379.836395263672,0,1,objects,big,0,1,objects,A,big,VS,O,12,E14,46.392578125
0,1,1,25096,2.94140625,0.15234375,6,0,14,64,15,1262.68383789062,169.871612548828,0,1,faces,male,0,1,objects,A,big,VS,O,12,E14,46.392578125
0,1,0,25099,3.376953125,0.111328125,7,0,15,77,18,1353.41174316406,568.329162597656,0,1,faces,female,0,1,objects,A,big,VS,O,12,E14,46.392578125
2,1,0,25100,3.5625,0.134765625,8,0,8,27,19,764.671813964844,940.541442871094,0,1,faces,male,0,1,objects,A,big,VS,O,12,E14,46.392578125
2,1,0,25101,3.736328125,0.130859375,9,0,7,26,20,726.540893554688,881.345764160156,0,1,faces,male,0,1,objects,A,big,VS,O,12,E14,46.392578125
2,1,0,25102,3.8984375,0.3515625,10,0,11,43,21,942.845397949219,780.518493652344,0,1,objects,big,0,1,objects,A,big,VS,O,12,E14,46.392578125
0,1,0,25114,0.30859375,0.2109375,1,1,6,31,2,840.014831542969,488.547607421875,0,1,faces,male,1,0,faces,P,female,VS,I,13,E14,50.591796875
0,1,0,25115,0.54296875,0.171875,2,1,9,41,3,936.977905273438,552.426574707031,0,1,faces,male,1,0,faces,P,female,VS,I,13,E14,50.591796875
0,1,0,25117,0.869140625,0.185546875,3,1,5,22,5,764.531799316406,478.637512207031,0,1,faces,male,1,0,faces,P,female,VS,I,13,E14,50.591796875
1,1,0,25118,1.095703125,0.1015625,4,1,4,12,6,626.629089355469,380.239471435547,1,0,NaN,NaN,1,0,faces,P,female,VS,I,13,E14,50.591796875
2,0,1,25121,1.544921875,0.216796875,5,0,4,12,9,628.816772460938,376.350921630859,1,0,NaN,NaN,1,0,faces,P,female,VS,I,13,E14,50.591796875
0,0,1,25125,2.515625,0.134765625,6,0,10,45,13,912.842651367188,977.642639160156,0,1,faces,male,1,0,faces,P,female,VS,I,13,E14,50.591796875
0,0,0,25127,2.8125,0.126953125,7,0,7,36,15,833.544494628906,974.305969238281,0,1,faces,female,1,0,faces,P,female,VS,I,13,E14,50.591796875
0,0,0,25132,3.689453125,0.1875,8,0,13,69,20,1268.16931152344,674.932189941406,0,1,objects,small,1,0,faces,P,female,VS,I,13,E14,50.591796875
0,0,0,25133,3.9140625,0.15234375,9,0,14,70,21,1262.01342773438,786.726806640625,0,1,faces,male,1,0,faces,P,female,VS,I,13,E14,50.591796875
0,1,1,25155,1.53125,0.853515625,1,1,11,60,9,1165.44946289062,689.071960449219,0,1,objects,small,0,0,objects,A,small,VS,O,14,E14,54.791015625
0,1,0,25181,0.326171875,0.21875,1,1,13,58,1,1152.66870117188,446.131622314453,0,1,faces,male,0,1,objects,A,small,EX,O,15,E14,58.990234375
0,1,0,25182,0.619140625,0.6171875,2,1,6,20,2,715.689575195312,287.201141357422,0,1,faces,female,0,1,objects,A,small,EX,O,15,E14,58.990234375
0,1,1,25186,2.111328125,0.14453125,3,1,11,53,6,1034.62023925781,856.89501953125,0,1,faces,male,0,1,objects,A,small,EX,O,15,E14,58.990234375
0,1,0,25188,3.080078125,0.201171875,4,1,4,17,8,620.397033691406,888.362854003906,0,1,faces,male,0,1,objects,A,small,EX,O,15,E14,58.990234375
0,1,0,25189,3.318359375,0.11328125,5,0,1,8,9,544.516174316406,886.805358886719,0,1,faces,female,0,1,objects,A,small,EX,O,15,E14,58.990234375
0,1,1,25213,0.7734375,0.123046875,1,1,12,61,5,1171.93444824219,779.358703613281,0,1,faces,male,1,1,faces,P,female,VS,F,16,E14,63.189453125
1,1,0,25215,1.07421875,0.150390625,2,1,11,60,7,1163.87561035156,675.524353027344,0,1,faces,female,1,1,faces,P,female,VS,F,16,E14,63.189453125
0,1,0,25217,1.416015625,0.265625,3,1,15,78,9,1369.78662109375,670.474426269531,0,1,faces,male,1,1,faces,P,female,VS,F,16,E14,63.189453125
0,1,0,25218,1.75,0.443359375,4,1,10,54,10,1057.42626953125,980.079895019531,0,1,faces,female,1,1,faces,P,female,VS,F,16,E14,63.189453125
0,1,0,25222,2.744140625,0.142578125,5,0,8,35,14,838.274963378906,872.764526367188,0,1,faces,female,1,1,faces,P,female,VS,F,16,E14,63.189453125
2,1,0,25227,3.6484375,0.23046875,6,0,11,60,19,1207.53491210938,603.52294921875,0,1,faces,female,1,1,faces,P,female,VS,F,16,E14,63.189453125
0,0,0,25228,3.90625,0.208984375,7,0,13,68,20,1238.14819335938,588.613952636719,1,0,NaN,NaN,1,1,faces,P,female,VS,F,16,E14,63.189453125
1,1,0,25243,0.392578125,0.134765625,1,1,8,50,2,1058.90710449219,584.4423828125,0,1,faces,female,0,1,faces,A,female,VS,F,17,E14,67.388671875
0,1,0,25247,1.103515625,0.125,2,1,13,74,6,1327.28076171875,274.865936279297,0,1,faces,male,0,1,faces,A,female,VS,F,17,E14,67.388671875
0,1,0,25248,1.255859375,0.185546875,3,1,10,64,7,1238.00061035156,183.191604614258,0,1,faces,female,0,1,faces,A,female,VS,F,17,E14,67.388671875
1,1,0,25249,1.498046875,0.134765625,4,1,7,47,8,1024.62573242188,272.081451416016,0,1,faces,female,0,1,faces,A,female,VS,F,17,E14,67.388671875
0,1,1,25250,1.7109375,0.16015625,5,0,11,72,9,1224.833984375,971.038879394531,0,1,faces,male,0,1,faces,A,female,VS,F,17,E14,67.388671875
0,1,0,25252,1.984375,0.22265625,6,0,15,81,11,1352.12036132812,980.375122070312,0,1,faces,female,0,1,faces,A,female,VS,F,17,E14,67.388671875
0,1,0,25255,2.625,0.115234375,7,0,2,8,14,525.422790527344,873.243469238281,0,1,objects,big,0,1,faces,A,female,VS,F,17,E14,67.388671875
0,1,0,25258,3.216796875,0.130859375,8,0,9,51,17,1053.31323242188,599.634887695312,0,1,objects,small,0,1,faces,A,female,VS,F,17,E14,67.388671875
2,1,0,25259,3.361328125,0.142578125,9,0,8,50,18,1039.7080078125,581.118286132812,0,1,faces,female,0,1,faces,A,female,VS,F,17,E14,67.388671875
2,1,0,25261,3.775390625,0.544921875,10,0,7,47,20,1022.8916015625,284.423309326172,0,1,faces,female,0,1,faces,A,female,VS,F,17,E14,67.388671875
0,1,1,25277,0.607421875,0.1171875,1,1,15,74,4,1318.34582519531,279.767364501953,0,1,faces,male,1,1,faces,P,female,VS,F,18,E14,71.587890625
0,1,0,25280,1.033203125,0.185546875,2,1,12,55,7,1152.31604003906,139.452941894531,0,1,faces,female,1,1,faces,P,female,VS,F,18,E14,71.587890625
0,1,0,25281,1.255859375,0.228515625,3,1,14,65,8,1240.98413085938,281.783386230469,0,1,faces,female,1,1,faces,P,female,VS,F,18,E14,71.587890625
0,1,1,25286,2.3125,0.111328125,4,1,11,53,13,1073.81005859375,878.28515625,1,0,NaN,NaN,1,1,faces,P,female,VS,F,18,E14,71.587890625
0,1,0,25291,3.275390625,0.1875,5,0,6,24,18,721.700439453125,626.117492675781,0,1,objects,big,1,1,faces,P,female,VS,F,18,E14,71.587890625
0,1,0,25292,3.501953125,0.38671875,6,0,9,41,19,937.350708007812,581.723754882812,0,1,faces,male,1,1,faces,P,female,VS,F,18,E14,71.587890625
0,1,0,25309,0.513671875,0.181640625,1,1,12,70,2,1255.57397460938,763.245727539062,0,1,faces,female,1,1,faces,P,female,VS,F,19,E14,75.787109375
0,1,0,25310,0.7578125,0.109375,2,1,7,45,3,997.30517578125,964.295227050781,0,1,objects,big,1,1,faces,P,female,VS,F,19,E14,75.787109375
0,1,0,25311,0.98828125,0.14453125,3,1,3,24,4,722.997192382812,610.784362792969,0,1,faces,female,1,1,faces,P,female,VS,F,19,E14,75.787109375
0,1,0,25312,1.16796875,0.12890625,4,1,5,32,5,844.793701171875,584.203125,0,1,faces,male,1,1,faces,P,female,VS,F,19,E14,75.787109375
0,1,1,25320,2.470703125,0.177734375,5,0,14,74,13,1356.06677246094,284.648590087891,0,1,faces,female,1,1,faces,P,female,VS,F,19,E14,75.787109375
1,1,1,25322,2.76953125,0.150390625,6,0,8,46,15,1040.18188476562,186.78564453125,1,0,NaN,NaN,1,1,faces,P,female,VS,F,19,E14,75.787109375
0,0,0,25324,3.705078125,0.15234375,7,0,9,47,17,1020.16796875,285.798065185547,0,1,objects,big,1,1,faces,P,female,VS,F,19,E14,75.787109375
2,0,0,25325,3.892578125,0.34765625,8,0,8,46,18,1013.64501953125,181.323715209961,1,0,NaN,NaN,1,1,faces,P,female,VS,F,19,E14,75.787109375
0,1,1,25343,0.509765625,0.2265625,1,1,10,27,3,717.787353515625,988.188598632812,0,1,faces,male,0,1,faces,A,male,VS,F,20,E14,79.986328125
0,1,0,25348,1.607421875,0.22265625,2,1,12,31,8,831.852233886719,416.124786376953,0,1,faces,female,0,1,faces,A,male,VS,F,20,E14,79.986328125
0,1,1,25351,2.248046875,0.13671875,3,1,3,3,11,512.59423828125,311.986999511719,0,1,objects,small,0,1,faces,A,male,VS,F,20,E14,79.986328125
1,1,0,25352,2.419921875,0.2265625,4,1,5,12,12,611.971862792969,389.411499023438,0,1,faces,male,0,1,faces,A,male,VS,F,20,E14,79.986328125
2,1,0,25356,3.298828125,0.15625,5,0,5,12,16,706.145141601562,298.006591796875,0,1,faces,male,0,1,faces,A,male,VS,F,20,E14,79.986328125
0,1,0,25357,3.525390625,0.1875,6,0,14,65,17,1247.37854003906,290.189910888672,0,1,faces,female,0,1,faces,A,male,VS,F,20,E14,79.986328125
0,0,0,25378,3.908203125,0.3046875,1,1,11,48,8,1038.20532226562,377.47412109375,1,0,NaN,NaN,1,1,objects,P,small,VS,O,21,E14,84.185546875
0,1,0,25395,1.2421875,0.244140625,1,1,9,36,4,837.637756347656,971.738159179688,0,1,faces,male,0,0,objects,A,big,EX,O,22,E14,88.384765625
0,1,0,25397,1.634765625,0.1328125,2,1,7,30,6,891.04150390625,334.635833740234,0,1,faces,male,0,0,objects,A,big,EX,O,22,E14,88.384765625
0,1,0,25400,2.42578125,0.171875,3,1,2,5,9,524.020751953125,573.413513183594,0,1,faces,male,0,0,objects,A,big,EX,O,22,E14,88.384765625
0,1,0,25422,0.25390625,0.125,1,1,9,35,1,883.204406738281,879.914001464844,0,1,faces,female,1,1,faces,P,female,VS,I,23,E14,92.583984375
0,1,0,25423,0.42578125,0.1171875,2,1,8,31,2,899.327758789062,431.092834472656,0,1,faces,female,1,1,faces,P,female,VS,I,23,E14,92.583984375
1,1,0,25425,0.759765625,0.12109375,3,1,12,47,4,1093.45495605469,203.447341918945,0,1,objects,big,1,1,faces,P,female,VS,I,23,E14,92.583984375
1,1,0,25426,0.91015625,0.115234375,4,1,14,55,5,1144.91516113281,187.896606445312,1,0,NaN,NaN,1,1,faces,P,female,VS,I,23,E14,92.583984375
2,1,0,25427,1.05859375,0.142578125,5,0,12,47,6,1053.38732910156,190.83056640625,0,1,objects,big,1,1,faces,P,female,VS,I,23,E14,92.583984375
2,1,0,25428,1.234375,0.166015625,6,0,14,55,7,1130.50073242188,185.460098266602,1,0,NaN,NaN,1,1,faces,P,female,VS,I,23,E14,92.583984375
3,1,1,25432,3.17578125,0.158203125,7,0,12,47,11,1045.89953613281,202.496887207031,0,1,objects,big,1,1,faces,P,female,VS,I,23,E14,92.583984375
0,1,0,25455,2.521484375,0.2109375,1,1,10,52,10,1074.17358398438,778.068298339844,0,1,faces,male,0,0,faces,A,female,EX,I,24,E14,96.783203125
0,1,1,25456,2.79296875,0.150390625,2,1,9,47,11,1081.08508300781,283.609497070312,0,1,faces,male,0,0,faces,A,female,EX,I,24,E14,96.783203125
0,1,0,25459,3.83984375,0.34375,3,1,5,34,14,898.234985351562,718.864990234375,0,1,faces,male,0,0,faces,A,female,EX,I,24,E14,96.783203125
0,1,0,25478,0.43359375,0.1171875,1,1,9,56,2,1116.2734375,269.008850097656,0,1,faces,male,1,1,faces,P,female,VS,F,25,E14,100.982421875
0,1,0,25479,0.5703125,0.1328125,2,1,6,47,3,1068.77795410156,242.415664672852,0,1,faces,male,1,1,faces,P,female,VS,F,25,E14,100.982421875
0,1,0,25481,0.931640625,0.173828125,3,1,13,71,5,1306.03588867188,829.536071777344,0,1,faces,female,1,1,faces,P,female,VS,F,25,E14,100.982421875
0,1,0,25482,1.134765625,0.267578125,4,1,8,53,6,1083.40844726562,830.020385742188,0,1,faces,male,1,1,faces,P,female,VS,F,25,E14,100.982421875
0,1,1,25483,1.458984375,0.1328125,5,0,14,77,7,1374.60095214844,566.655639648438,0,1,faces,male,1,1,faces,P,female,VS,F,25,E14,100.982421875
0,1,0,25485,1.75,0.2109375,6,0,12,68,9,1271.57702636719,549.289916992188,0,1,faces,female,1,1,faces,P,female,VS,F,25,E14,100.982421875
0,0,0,25487,2.1640625,0.86328125,7,0,2,6,11,545.164916992188,672.685974121094,1,0,NaN,NaN,1,1,faces,P,female,VS,F,25,E14,100.982421875
1,1,1,25499,0.482421875,0.130859375,1,1,11,68,1,1270.06311035156,541.272277832031,1,0,NaN,NaN,1,1,faces,P,female,VS,F,26,E14,105.181640625
0,0,1,25502,1.458984375,0.14453125,2,1,10,66,4,1302.4638671875,347.360717773438,0,1,faces,male,1,1,faces,P,female,VS,F,26,E14,105.181640625
0,0,0,25504,1.814453125,0.224609375,3,1,9,56,6,1192.32934570312,245.075286865234,0,1,faces,female,1,1,faces,P,female,VS,F,26,E14,105.181640625
1,0,1,25506,2.263671875,0.12109375,4,1,14,79,8,1324.68395996094,786.030029296875,0,1,faces,male,1,1,faces,P,female,VS,F,26,E14,105.181640625
2,0,1,25510,2.90625,0.130859375,5,0,11,68,12,1287.93298339844,546.893432617188,1,0,NaN,NaN,1,1,faces,P,female,VS,F,26,E14,105.181640625
2,0,0,25512,3.345703125,0.171875,6,0,14,79,14,1400.46374511719,723.370544433594,0,1,faces,male,1,1,faces,P,female,VS,F,26,E14,105.181640625
0,1,0,25530,0.44140625,0.197265625,1,1,11,58,3,1193.38293457031,422.508575439453,0,1,faces,female,0,1,faces,A,female,VS,I,27,E14,109.380859375
0,1,1,25531,0.69140625,0.20703125,2,1,14,69,4,1280.59924316406,688.414855957031,0,1,faces,female,0,1,faces,A,female,VS,I,27,E14,109.380859375
0,1,1,25533,1.1796875,0.15234375,3,1,12,62,6,1208.22033691406,837.674621582031,0,1,faces,male,0,1,faces,A,female,VS,I,27,E14,109.380859375
0,1,0,25535,1.4921875,0.20703125,4,1,13,63,8,1173.35021972656,918.565063476562,0,1,faces,male,0,1,faces,A,female,VS,I,27,E14,109.380859375
0,1,1,25536,1.771484375,0.181640625,5,0,4,17,9,654.475280761719,806.522521972656,0,1,faces,female,0,1,faces,A,female,VS,I,27,E14,109.380859375
0,1,0,25538,2.126953125,0.240234375,6,0,3,16,11,624.412170410156,745.222290039062,0,1,faces,female,0,1,faces,A,female,VS,I,27,E14,109.380859375
0,1,0,25539,2.4296875,0.12109375,7,0,8,42,12,948.797241210938,642.212585449219,0,1,objects,big,0,1,faces,A,female,VS,I,27,E14,109.380859375
0,1,0,25541,2.875,0.126953125,8,0,10,55,14,1181.27978515625,123.002662658691,0,1,faces,male,0,1,faces,A,female,VS,I,27,E14,109.380859375
0,1,0,25542,3.126953125,0.25,9,0,2,14,15,626.295104980469,538.573120117188,0,1,faces,female,0,1,faces,A,female,VS,I,27,E14,109.380859375
0,1,1,25545,3.6875,0.23828125,10,0,9,48,18,1057.81872558594,310.111846923828,0,1,faces,female,0,1,faces,A,female,VS,I,27,E14,109.380859375
0,1,0,25561,0.232421875,0.318359375,1,1,7,21,1,747.411010742188,354.792358398438,0,1,faces,female,0,1,faces,A,female,EX,I,28,E14,113.580078125
1,1,1,25563,0.734375,0.12109375,2,1,10,40,3,975.89599609375,436.457427978516,0,1,faces,female,0,1,faces,A,female,EX,I,28,E14,113.580078125
0,1,0,25565,1.205078125,0.138671875,3,1,15,77,5,1366.37902832031,529.925720214844,0,1,faces,female,0,1,faces,A,female,EX,I,28,E14,113.580078125
0,1,1,25566,2.205078125,0.154296875,4,1,8,28,6,820.450561523438,155.687713623047,0,1,faces,male,0,1,faces,A,female,EX,I,28,E14,113.580078125
2,1,0,25569,3.7890625,0.603515625,5,0,10,40,9,950.044189453125,430.727294921875,0,1,faces,female,0,1,faces,A,female,EX,I,28,E14,113.580078125
1,1,0,25583,0.625,0.154296875,1,1,14,75,3,1328.6220703125,322.940948486328,0,1,objects,big,1,1,faces,P,male,VS,I,29,E14,117.779296875
0,1,0,25585,0.896484375,0.1875,2,1,9,55,5,1161.3583984375,146.874649047852,0,1,faces,male,1,1,faces,P,male,VS,I,29,E14,117.779296875
0,1,0,25586,1.126953125,0.173828125,3,1,13,74,6,1311.80114746094,218.075256347656,0,1,faces,male,1,1,faces,P,male,VS,I,29,E14,117.779296875
0,1,1,25587,1.341796875,0.1640625,4,1,15,76,7,1403.88684082031,407.968902587891,1,0,NaN,NaN,1,1,faces,P,male,VS,I,29,E14,117.779296875
2,0,1,25589,2.587890625,0.22265625,5,0,14,75,9,1385.5283203125,389.077819824219,0,1,objects,big,1,1,faces,P,male,VS,I,29,E14,117.779296875
0,1,0,25605,0.2109375,0.1171875,1,1,6,34,1,852.673278808594,725.911071777344,0,1,objects,small,0,1,faces,A,male,VS,F,30,E14,121.978515625
0,1,1,25607,0.56640625,0.16015625,2,1,14,78,3,1363.78625488281,649.529846191406,0,1,faces,female,0,1,faces,A,male,VS,F,30,E14,121.978515625
0,1,1,25612,1.318359375,0.126953125,3,1,13,69,8,1301.54382324219,644.431335449219,0,1,faces,male,0,1,faces,A,male,VS,F,30,E14,121.978515625
0,1,0,25614,1.708984375,0.265625,4,1,15,79,10,1395.4599609375,730.693786621094,0,1,faces,male,0,1,faces,A,male,VS,F,30,E14,121.978515625
0,1,0,25616,2.181640625,0.169921875,5,0,9,59,12,1181.85473632812,525.2265625,0,1,faces,male,0,1,faces,A,male,VS,F,30,E14,121.978515625
0,1,1,25617,2.396484375,0.134765625,6,0,12,66,13,1246.61047363281,310.551147460938,0,1,faces,male,0,1,faces,A,male,VS,F,30,E14,121.978515625
0,1,0,25619,2.705078125,0.16796875,7,0,11,64,15,1273.07824707031,174.559310913086,0,1,objects,big,0,1,faces,A,male,VS,F,30,E14,121.978515625
0,1,0,25620,3.0234375,0.2109375,8,0,8,40,16,960.514709472656,434.427947998047,0,1,faces,female,0,1,faces,A,male,VS,F,30,E14,121.978515625
0,1,0,25621,3.271484375,0.19921875,9,0,7,39,17,965.66845703125,332.678314208984,0,1,faces,female,0,1,faces,A,male,VS,F,30,E14,121.978515625
0,1,1,25622,3.505859375,0.146484375,10,0,2,11,18,663.376281738281,256.656127929688,0,1,faces,male,0,1,faces,A,male,VS,F,30,E14,121.978515625
0,1,0,25624,3.76953125,0.189453125,11,0,4,19,20,715.615478515625,160.461639404297,0,1,faces,female,0,1,faces,A,male,VS,F,30,E14,121.978515625
1,1,0,25643,0.40234375,0.125,1,1,13,57,3,1174.974609375,380.447875976562,0,1,faces,male,0,1,faces,A,male,VS,I,31,E14,126.177734375
0,1,0,25644,0.560546875,0.1171875,2,1,11,49,4,1080.54858398438,393.496490478516,0,1,faces,male,0,1,faces,A,male,VS,I,31,E14,126.177734375
2,1,1,25645,0.69921875,0.142578125,3,1,13,57,5,1171.23291015625,326.061279296875,0,1,faces,male,0,1,faces,A,male,VS,I,31,E14,126.177734375
0,1,0,25647,1.060546875,0.20703125,4,1,15,76,7,1397.20678710938,402.666900634766,0,1,faces,female,0,1,faces,A,male,VS,I,31,E14,126.177734375
0,1,0,25651,2.052734375,0.23828125,5,0,1,5,11,538.481689453125,546.79052734375,0,1,faces,male,0,1,faces,A,male,VS,I,31,E14,126.177734375
0,1,0,25652,2.328125,0.20703125,6,0,3,13,12,651.203796386719,399.315093994141,0,1,objects,small,0,1,faces,A,male,VS,I,31,E14,126.177734375
1,1,0,25653,2.5703125,0.1328125,7,0,5,20,13,727.189697265625,277.717803955078,0,1,objects,big,0,1,faces,A,male,VS,I,31,E14,126.177734375
0,1,0,25654,2.71875,0.177734375,8,0,6,21,14,734.519836425781,320.421691894531,0,1,faces,male,0,1,faces,A,male,VS,I,31,E14,126.177734375
2,1,0,25655,2.921875,0.119140625,9,0,5,20,15,755.092468261719,228.660339355469,0,1,objects,big,0,1,faces,A,male,VS,I,31,E14,126.177734375
0,1,0,25656,3.078125,0.134765625,10,0,2,11,16,624.908142089844,229.330368041992,0,1,faces,female,0,1,faces,A,male,VS,I,31,E14,126.177734375
0,1,1,25657,3.279296875,0.150390625,11,0,10,46,17,1059.85095214844,146.751159667969,0,1,faces,male,0,1,faces,A,male,VS,I,31,E14,126.177734375
0,1,1,25659,3.626953125,0.130859375,12,0,4,17,19,637.504821777344,831.012573242188,0,1,objects,small,0,1,faces,A,male,VS,I,31,E14,126.177734375
0,1,0,25661,3.923828125,0.201171875,13,0,7,24,21,730.52197265625,661.9599609375,0,1,objects,big,0,1,faces,A,male,VS,I,31,E14,126.177734375
0,1,0,25679,0.53515625,0.232421875,1,1,9,58,4,1180.91613769531,447.753173828125,0,1,objects,big,1,1,objects,P,small,VS,O,32,E14,130.376953125
0,1,0,25680,0.8125,0.193359375,2,1,13,69,5,1310.21789550781,608.190734863281,0,1,faces,male,1,1,objects,P,small,VS,O,32,E14,130.376953125
0,1,0,25683,1.380859375,0.2265625,3,1,12,66,8,1245.75964355469,330.770904541016,0,1,faces,female,1,1,objects,P,small,VS,O,32,E14,130.376953125
0,1,0,25684,1.640625,0.205078125,4,1,11,65,9,1254.65979003906,212.502136230469,0,1,objects,small,1,1,objects,P,small,VS,O,32,E14,130.376953125
0,1,0,25685,1.884765625,0.220703125,5,0,7,46,10,1048.83972167969,131.536773681641,0,1,objects,big,1,1,objects,P,small,VS,O,32,E14,130.376953125
0,1,0,25686,2.142578125,0.15234375,6,0,5,28,11,840.557373046875,152.378952026367,0,1,faces,female,1,1,objects,P,small,VS,O,32,E14,130.376953125
0,0,1,25687,2.337890625,0.271484375,7,0,3,22,12,740.495666503906,414.158905029297,1,0,NaN,NaN,1,1,objects,P,small,VS,O,32,E14,130.376953125
0,1,0,25699,0.208984375,0.177734375,1,1,8,32,1,849.510620117188,537.76806640625,0,1,faces,female,0,1,objects,A,big,VS,O,33,E14,134.576171875
0,1,0,25705,1.236328125,0.103515625,2,1,14,80,7,1401.58374023438,807.706420898438,0,1,objects,big,0,1,objects,A,big,VS,O,33,E14,134.576171875
0,1,1,25706,1.40625,0.103515625,3,1,13,74,8,1315.13500976562,231.004776000977,0,1,faces,male,0,1,objects,A,big,VS,O,33,E14,134.576171875
0,1,0,25708,1.736328125,0.1015625,4,1,11,46,10,1031.76806640625,179.013031005859,0,1,faces,male,0,1,objects,A,big,VS,O,33,E14,134.576171875
0,1,0,25709,1.87109375,0.12890625,5,0,10,38,11,940.189025878906,228.889770507812,0,1,faces,female,0,1,objects,A,big,VS,O,33,E14,134.576171875
0,1,0,25710,2.052734375,0.1328125,6,0,6,21,12,740.1806640625,335.149139404297,0,1,faces,female,0,1,objects,A,big,VS,O,33,E14,134.576171875
0,1,0,25711,2.228515625,0.181640625,7,0,12,48,13,1044.95727539062,323.351806640625,0,1,objects,small,0,1,objects,A,big,VS,O,33,E14,134.576171875
0,1,0,25713,2.603515625,0.1171875,8,0,3,14,15,640.057250976562,546.515808105469,0,1,faces,female,0,1,objects,A,big,VS,O,33,E14,134.576171875
0,1,0,25714,2.759765625,0.177734375,9,0,1,1,16,550.550720214844,167.010284423828,0,1,faces,male,0,1,objects,A,big,VS,O,33,E14,134.576171875
0,1,0,25716,3.201171875,0.169921875,10,0,2,7,18,534.147521972656,768.615234375,0,1,objects,big,0,1,objects,A,big,VS,O,33,E14,134.576171875
0,1,0,25717,3.40625,0.126953125,11,0,4,15,19,689.53759765625,655.140380859375,0,1,faces,male,0,1,objects,A,big,VS,O,33,E14,134.576171875
0,1,0,25718,3.5625,0.169921875,12,0,7,24,20,749.726806640625,643.389404296875,0,1,faces,male,0,1,objects,A,big,VS,O,33,E14,134.576171875
0,1,1,25719,3.79296875,0.10546875,13,0,5,18,21,685.247009277344,942.43359375,0,1,faces,female,0,1,objects,A,big,VS,O,33,E14,134.576171875
0,1,0,25732,0.453125,0.173828125,1,1,11,56,2,1165.93798828125,232.120849609375,0,1,objects,big,0,1,faces,A,female,VS,F,34,E14,138.775390625
0,1,0,25733,0.6875,0.263671875,2,1,9,40,3,955.460144042969,426.198791503906,0,1,faces,female,0,1,faces,A,female,VS,F,34,E14,138.775390625
0,1,1,25734,1.00390625,0.140625,3,1,10,55,4,1155.02160644531,169.097961425781,0,1,faces,female,0,1,faces,A,female,VS,F,34,E14,138.775390625
0,1,0,25736,1.294921875,0.10546875,4,1,14,70,6,1262.74291992188,738.552185058594,0,1,faces,female,0,1,faces,A,female,VS,F,34,E14,138.775390625
1,1,0,25737,1.423828125,0.173828125,5,0,12,60,7,1186.84741210938,636.981689453125,0,1,faces,female,0,1,faces,A,female,VS,F,34,E14,138.775390625
0,1,1,25738,1.666015625,0.158203125,6,0,6,22,8,756.197998046875,472.330627441406,0,1,faces,male,0,1,faces,A,female,VS,F,34,E14,138.775390625
0,1,0,25740,1.951171875,0.1953125,7,0,7,23,10,743.337707519531,537.944519042969,0,1,faces,male,0,1,faces,A,female,VS,F,34,E14,138.775390625
0,1,1,25743,2.41015625,0.1796875,8,0,2,4,13,532.407409667969,463.917175292969,0,1,faces,female,0,1,faces,A,female,VS,F,34,E14,138.775390625
0,1,0,25745,2.70703125,0.146484375,9,0,1,3,15,538.747863769531,320.020690917969,0,1,faces,male,0,1,faces,A,female,VS,F,34,E14,138.775390625
0,1,0,25747,3.060546875,0.208984375,10,0,13,63,17,1162.70007324219,932.872314453125,0,1,faces,male,0,1,faces,A,female,VS,F,34,E14,138.775390625
2,1,0,25752,3.904296875,0.1171875,11,0,12,60,22,1207.85522460938,632.426513671875,0,1,faces,female,0,1,faces,A,female,VS,F,34,E14,138.775390625
1,1,1,25769,0.765625,0.177734375,1,1,12,65,2,1262.45593261719,265.062530517578,0,1,faces,female,0,1,objects,A,small,VS,O,35,E14,142.974609375
0,1,0,25774,1.734375,0.25390625,2,1,2,2,7,582.687255859375,258.153533935547,0,1,faces,female,0,1,objects,A,small,VS,O,35,E14,142.974609375
2,1,0,25776,2.19140625,0.150390625,3,1,12,65,9,1247.80078125,232.487197875977,0,1,faces,female,0,1,objects,A,small,VS,O,35,E14,142.974609375
0,1,1,25777,2.41796875,0.162109375,4,1,13,71,10,1258.08422851562,871.959594726562,0,1,faces,male,0,1,objects,A,small,VS,O,35,E14,142.974609375
0,1,1,25779,2.76171875,0.154296875,5,0,15,74,12,1320.64270019531,206.931457519531,0,1,faces,female,0,1,objects,A,small,VS,O,35,E14,142.974609375
0,1,0,25782,3.43359375,0.20703125,6,0,5,14,15,621.063903808594,568.361206054688,0,1,faces,male,0,1,objects,A,small,VS,O,35,E14,142.974609375
0,1,0,25783,3.6796875,0.23828125,7,0,6,16,16,706.645935058594,761.512145996094,0,1,faces,female,0,1,objects,A,small,VS,O,35,E14,142.974609375
0,1,0,25784,3.966796875,0.125,8,0,4,11,17,671.314147949219,275.398803710938,0,1,objects,small,0,1,objects,A,small,VS,O,35,E14,142.974609375
0,1,0,25806,0.203125,0.103515625,1,1,7,32,1,894.295227050781,546.829345703125,0,1,faces,male,1,1,objects,P,small,VS,O,36,E14,147.173828125
0,1,0,25807,0.34375,0.12109375,2,1,8,40,2,983.213928222656,457.446472167969,0,1,faces,male,1,1,objects,P,small,VS,O,36,E14,147.173828125
0,1,0,25808,0.5078125,0.248046875,3,1,12,59,3,1191.44396972656,557.868103027344,0,1,faces,female,1,1,objects,P,small,VS,O,36,E14,147.173828125
0,1,0,25809,0.7890625,0.119140625,4,1,15,77,4,1377.814453125,542.056579589844,0,1,faces,female,1,1,objects,P,small,VS,O,36,E14,147.173828125
0,1,0,25810,0.94140625,0.18359375,5,0,14,73,5,1365.83178710938,189.133102416992,0,1,objects,big,1,1,objects,P,small,VS,O,36,E14,147.173828125
0,1,1,25811,1.203125,0.11328125,6,0,6,25,6,764.51806640625,752.761169433594,0,1,faces,female,1,1,objects,P,small,VS,O,36,E14,147.173828125
0,1,0,25813,1.482421875,0.162109375,7,0,10,45,8,988.302124023438,893.348571777344,0,1,objects,small,1,1,objects,P,small,VS,O,36,E14,147.173828125
0,1,1,25815,2.009765625,0.154296875,8,0,3,11,10,668.907775878906,214.532577514648,1,0,NaN,NaN,1,1,objects,P,small,VS,O,36,E14,147.173828125
0,1,1,25832,0.34375,0.1328125,1,1,12,67,3,1305.05334472656,436.354919433594,0,1,faces,female,0,1,objects,A,small,EX,O,37,E14,151.373046875
0,1,0,25834,0.654296875,0.4140625,2,1,9,47,5,1034.9716796875,215.648849487305,0,1,objects,big,0,1,objects,A,small,EX,O,37,E14,151.373046875
0,1,1,25835,1.10546875,0.310546875,3,1,8,38,6,937.237548828125,230.551635742188,0,1,faces,female,0,1,objects,A,small,EX,O,37,E14,151.373046875
0,1,1,25838,1.888671875,0.146484375,4,1,7,37,9,955.299499511719,103.937644958496,0,1,faces,male,0,1,objects,A,small,EX,O,37,E14,151.373046875
0,1,1,25839,2.11328125,0.103515625,5,0,5,24,10,726.018798828125,669.328430175781,0,1,objects,small,0,1,objects,A,small,EX,O,37,E14,151.373046875
1,1,0,25841,3.05078125,0.12890625,6,0,11,62,12,1132.27770996094,812.853820800781,0,1,objects,big,0,1,objects,A,small,EX,O,37,E14,151.373046875
2,1,0,25844,3.66015625,0.18359375,7,0,11,62,15,1210.39367675781,807.521789550781,0,1,objects,big,0,1,objects,A,small,EX,O,37,E14,151.373046875
0,1,1,25870,0.673828125,0.333984375,1,1,2,2,3,555.491149902344,222.480194091797,0,1,faces,female,0,1,faces,A,female,EX,F,38,E14,155.572265625
0,1,0,25872,1.35546875,0.26171875,2,1,11,48,5,1096.2158203125,329.5087890625,0,1,objects,small,0,1,faces,A,female,EX,F,38,E14,155.572265625
0,1,0,25873,1.666015625,0.140625,3,1,14,58,6,1195.91735839844,412.042602539062,0,1,faces,female,0,1,faces,A,female,EX,F,38,E14,155.572265625
0,1,0,25874,2.43359375,0.7265625,4,1,6,28,7,840.75537109375,126.628509521484,0,1,faces,female,0,1,faces,A,female,EX,F,38,E14,155.572265625
0,1,0,25876,3.3671875,0.50390625,5,0,15,77,9,1375.26831054688,528.253173828125,0,1,objects,small,0,1,faces,A,female,EX,F,38,E14,155.572265625
0,1,0,25896,0.5859375,0.15625,1,1,14,77,4,1406.37573242188,576.277709960938,0,1,faces,male,1,0,faces,P,female,VS,I,39,E14,159.771484375
0,1,1,25901,1.26171875,0.158203125,2,1,13,70,9,1298.06042480469,747.362915039062,0,1,faces,female,1,0,faces,P,female,VS,I,39,E14,159.771484375
0,1,0,25905,2.0625,0.158203125,3,1,4,27,13,743.008972167969,891.962768554688,0,1,faces,female,1,0,faces,P,female,VS,I,39,E14,159.771484375
0,1,0,25907,2.400390625,0.119140625,4,1,2,23,15,758.639343261719,543.083251953125,0,1,faces,male,1,0,faces,P,female,VS,I,39,E14,159.771484375
0,0,0,25908,2.55078125,0.3828125,5,0,6,33,16,866.657531738281,604.854431152344,1,0,NaN,NaN,1,0,faces,P,female,VS,I,39,E14,159.771484375
0,0,0,25911,3.26171875,0.138671875,6,0,3,25,19,747.073547363281,721.685363769531,0,1,faces,female,1,0,faces,P,female,VS,I,39,E14,159.771484375
0,0,1,25912,3.46875,0.134765625,7,0,7,38,20,993.125366210938,255.702865600586,0,1,faces,male,1,0,faces,P,female,VS,I,39,E14,159.771484375
0,0,0,25914,3.806640625,0.16796875,8,0,1,19,22,796.724487304688,145.445129394531,0,1,faces,female,1,0,faces,P,female,VS,I,39,E14,159.771484375
1,1,1,25929,0.265625,0.15625,1,1,14,69,1,1295.14526367188,629.810302734375,0,1,faces,female,0,1,objects,A,big,EX,O,40,E14,163.970703125
0,1,0,25934,1.66796875,0.958984375,2,1,3,19,6,710.749389648438,151.367446899414,0,1,faces,male,0,1,objects,A,big,EX,O,40,E14,163.970703125
2,1,0,25936,2.93359375,0.16796875,3,1,14,69,8,1271.20288085938,626.595764160156,0,1,faces,female,0,1,objects,A,big,EX,O,40,E14,163.970703125
0,1,0,25937,3.73828125,0.25390625,4,1,8,40,9,947.021362304688,434.521942138672,0,1,objects,big,0,1,objects,A,big,EX,O,40,E14,163.970703125
0,1,0,25953,0.263671875,0.1796875,1,1,14,69,2,1264.57409667969,653.881103515625,0,1,faces,female,1,1,faces,P,female,VS,F,41,E14,168.169921875
0,1,0,25955,0.66796875,0.16015625,2,1,10,49,4,1058.85290527344,427.890014648438,0,1,objects,small,1,1,faces,P,female,VS,F,41,E14,168.169921875
0,1,1,25956,0.873046875,0.15234375,3,1,5,19,5,729.469177246094,182.781280517578,0,1,objects,small,1,1,faces,P,female,VS,F,41,E14,168.169921875
0,1,1,25958,1.205078125,0.15625,4,1,4,17,7,677.967956542969,817.146789550781,0,1,faces,female,1,1,faces,P,female,VS,F,41,E14,168.169921875
0,1,0,25961,1.71484375,0.21484375,5,0,11,53,10,1033.91943359375,827.653381347656,0,1,faces,male,1,1,faces,P,female,VS,F,41,E14,168.169921875
0,1,0,25962,1.96484375,0.103515625,6,0,9,36,11,881.482727050781,896.276062011719,0,1,faces,female,1,1,faces,P,female,VS,F,41,E14,168.169921875
0,1,1,25963,2.220703125,0.1015625,7,0,15,74,12,1382.44995117188,265.064086914062,0,1,faces,female,1,1,faces,P,female,VS,F,41,E14,168.169921875
0,1,0,25966,2.716796875,0.130859375,8,0,7,23,15,727.262634277344,527.935546875,0,1,faces,male,1,1,faces,P,female,VS,F,41,E14,168.169921875
0,1,1,25967,2.91015625,0.138671875,9,0,12,59,16,1180.171875,586.602172851562,0,1,faces,male,1,1,faces,P,female,VS,F,41,E14,168.169921875
0,0,0,25969,3.2890625,1.2109375,10,0,13,60,18,1154.22302246094,624.0380859375,1,0,NaN,NaN,1,1,faces,P,female,VS,F,41,E14,168.169921875
0,1,1,25982,0.32421875,0.10546875,1,1,8,41,2,975.555603027344,503.838317871094,0,1,faces,male,1,1,faces,P,female,VS,I,42,E14,172.369140625
0,1,0,25984,0.662109375,0.125,2,1,11,57,4,1185.30603027344,300.083190917969,0,1,faces,male,1,1,faces,P,female,VS,I,42,E14,172.369140625
0,1,1,25985,0.82421875,0.142578125,3,1,13,74,5,1366.28344726562,237.266937255859,0,1,faces,female,1,1,faces,P,female,VS,I,42,E14,172.369140625
0,1,0,25987,1.16796875,0.130859375,4,1,12,73,7,1379.68969726562,140.007095336914,0,1,faces,male,1,1,faces,P,female,VS,I,42,E14,172.369140625
0,1,1,25989,1.4921875,0.11328125,5,0,14,79,9,1408.39404296875,715.476623535156,0,1,faces,male,1,1,faces,P,female,VS,I,42,E14,172.369140625
0,1,0,25992,1.955078125,0.14453125,6,0,6,26,12,751.054504394531,803.755554199219,0,1,faces,male,1,1,faces,P,female,VS,I,42,E14,172.369140625
0,1,1,25993,2.138671875,0.162109375,7,0,4,14,13,649.035888671875,509.404754638672,0,1,faces,female,1,1,faces,P,female,VS,I,42,E14,172.369140625
0,1,0,25995,2.4765625,0.166015625,8,0,5,22,15,735.358337402344,443.174774169922,1,0,NaN,NaN,1,1,faces,P,female,VS,I,42,E14,172.369140625
1,1,0,26009,0.40234375,0.126953125,1,1,4,22,2,764.329528808594,422.681945800781,0,1,faces,male,0,0,faces,P,female,VS,F,43,E14,176.568359375
0,1,1,26011,0.80859375,0.197265625,2,1,10,60,4,1200.59558105469,641.638000488281,0,1,faces,male,0,0,faces,P,female,VS,F,43,E14,176.568359375
0,1,0,26014,1.310546875,0.130859375,3,1,15,74,7,1383.7275390625,242.67887878418,0,1,faces,female,0,0,faces,P,female,VS,F,43,E14,176.568359375
1,1,0,26015,1.466796875,0.21484375,4,1,9,56,8,1193.00170898438,221.591827392578,0,1,faces,female,0,0,faces,P,female,VS,F,43,E14,176.568359375
0,1,0,26016,1.716796875,0.373046875,5,0,12,66,9,1293.52404785156,319.884033203125,0,1,faces,female,0,0,faces,P,female,VS,F,43,E14,176.568359375
0,1,1,26017,2.166015625,0.1015625,6,0,1,12,10,612.430419921875,359.822784423828,0,1,faces,female,0,0,faces,P,female,VS,F,43,E14,176.568359375
0,1,1,26020,2.591796875,0.15625,7,0,5,27,13,741.504028320312,892.235961914062,0,1,faces,male,0,0,faces,P,female,VS,F,43,E14,176.568359375
0,1,1,26021,2.779296875,0.1640625,8,0,6,33,14,832.280578613281,636.954772949219,0,1,faces,female,0,0,faces,P,female,VS,F,43,E14,176.568359375
2,1,0,26024,3.251953125,0.103515625,9,0,4,22,17,727.842346191406,414.364349365234,0,1,faces,male,0,0,faces,P,female,VS,F,43,E14,176.568359375
0,1,0,26025,3.3828125,0.140625,10,0,7,38,18,983.025146484375,259.061553955078,0,1,objects,small,0,0,faces,P,female,VS,F,43,E14,176.568359375
2,1,0,26027,3.6640625,0.24609375,11,0,9,56,20,1142.11889648438,239.726058959961,0,1,faces,female,0,0,faces,P,female,VS,F,43,E14,176.568359375
0,1,0,26028,3.939453125,0.17578125,12,0,11,64,21,1253.08483886719,165.056015014648,0,1,objects,big,0,0,faces,P,female,VS,F,43,E14,176.568359375
0,1,0,26049,0.939453125,0.12890625,1,1,10,63,7,1188.29431152344,902.199340820312,0,1,faces,male,1,1,objects,P,big,VS,O,44,E14,180.767578125
0,1,0,26050,1.333984375,0.158203125,2,1,13,74,8,1379.90747070312,274.168243408203,0,1,faces,female,1,1,objects,P,big,VS,O,44,E14,180.767578125
0,0,1,26052,1.806640625,0.232421875,3,1,2,6,10,522.416809082031,632.678039550781,1,0,NaN,NaN,1,1,objects,P,big,VS,O,44,E14,180.767578125
1,1,0,26073,0.27734375,0.173828125,1,1,2,23,2,776.028503417969,581.595092773438,0,1,faces,male,0,1,faces,A,male,EX,F,45,E14,184.966796875
0,1,1,26075,1.056640625,0.166015625,2,1,7,51,4,1103.16394042969,609.879455566406,0,1,faces,male,0,1,faces,A,male,EX,F,45,E14,184.966796875
0,1,0,26078,1.86328125,0.12109375,3,1,10,58,7,1156.68505859375,438.834930419922,0,1,objects,small,0,1,faces,A,male,EX,F,45,E14,184.966796875
0,1,0,26079,2.548828125,0.39453125,4,1,14,73,8,1383.10534667969,130.779067993164,0,1,objects,big,0,1,faces,A,male,EX,F,45,E14,184.966796875
0,1,0,26081,3.142578125,0.302734375,5,0,9,55,10,1146.5517578125,104.873710632324,0,1,objects,big,0,1,faces,A,male,EX,F,45,E14,184.966796875
2,1,1,26082,3.515625,0.154296875,6,0,2,23,11,726.206115722656,551.817565917969,0,1,faces,male,0,1,faces,A,male,EX,F,45,E14,184.966796875
1,1,0,26103,0.40625,0.109375,1,1,11,49,2,1046.27453613281,410.560089111328,0,1,faces,female,1,0,objects,P,big,VS,O,46,E14,189.166015625
0,0,0,26104,0.560546875,0.251953125,2,1,9,37,3,936.131774902344,130.032455444336,1,0,NaN,NaN,1,0,objects,P,big,VS,O,46,E14,189.166015625
0,0,1,26106,1.00390625,0.140625,3,1,5,22,5,749.832580566406,443.774322509766,0,1,faces,female,1,0,objects,P,big,VS,O,46,E14,189.166015625
1,0,0,26108,1.384765625,0.2578125,4,1,7,32,7,836.365478515625,528.388366699219,0,1,faces,female,1,0,objects,P,big,VS,O,46,E14,189.166015625
2,0,0,26109,1.689453125,0.28125,5,0,11,49,8,1054.01611328125,438.298492431641,0,1,faces,female,1,0,objects,P,big,VS,O,46,E14,189.166015625
1,0,1,26110,2.03515625,0.150390625,6,0,8,35,9,817.787902832031,815.345703125,0,1,faces,male,1,0,objects,P,big,VS,O,46,E14,189.166015625
2,0,1,26114,3.013671875,0.18359375,7,0,8,35,13,836.853393554688,815.223815917969,0,1,faces,male,1,0,objects,P,big,VS,O,46,E14,189.166015625
2,0,0,26115,3.234375,0.35546875,8,0,7,32,14,833.951416015625,528.260864257812,0,1,faces,female,1,0,objects,P,big,VS,O,46,E14,189.166015625
0,0,1,26116,3.6640625,0.236328125,9,0,14,76,15,1365.19250488281,424.290618896484,0,1,objects,small,1,0,objects,P,big,VS,O,46,E14,189.166015625
1,1,1,26139,0.400390625,0.1015625,1,1,5,31,2,883.415893554688,413.602172851562,0,1,objects,small,0,1,faces,A,male,EX,I,47,E14,193.365234375
0,1,1,26142,1.615234375,0.1171875,2,1,11,56,5,1157.86889648438,226.860733032227,0,1,faces,female,0,1,faces,A,male,EX,I,47,E14,193.365234375
0,1,1,26145,2.517578125,0.16015625,3,1,12,64,8,1253.02319335938,124.234687805176,0,1,faces,female,0,1,faces,A,male,EX,I,47,E14,193.365234375
2,1,0,26147,3.060546875,0.375,4,1,5,31,10,860.366760253906,424.344848632812,0,1,objects,small,0,1,faces,A,male,EX,I,47,E14,193.365234375
0,1,1,26148,3.501953125,0.1015625,5,0,1,5,11,570.351989746094,587.21435546875,0,1,faces,male,0,1,faces,A,male,EX,I,47,E14,193.365234375
0,1,1,26150,3.783203125,0.166015625,6,0,4,14,13,630.706237792969,514.104858398438,0,1,faces,male,0,1,faces,A,male,EX,I,47,E14,193.365234375
0,1,0,26176,0.599609375,0.150390625,1,1,12,60,3,1207.15173339844,612.416015625,0,1,faces,female,1,1,faces,P,male,VS,I,48,E14,197.564453125
1,0,1,26178,0.87890625,0.20703125,2,1,14,77,5,1374.77209472656,523.825927734375,1,0,NaN,NaN,1,1,faces,P,male,VS,I,48,E14,197.564453125
2,0,1,26185,2.91796875,1.318359375,3,1,14,77,12,1374.96032714844,515.831359863281,1,0,NaN,NaN,1,1,faces,P,male,VS,I,48,E14,197.564453125
1,1,0,26207,0.513671875,0.1328125,1,1,10,59,2,1192.88098144531,540.092529296875,1,0,NaN,NaN,1,1,faces,P,male,VS,F,49,E14,201.763671875
0,1,0,26208,0.673828125,0.15625,2,1,15,76,3,1364.07543945312,405.252655029297,0,1,objects,big,1,1,faces,P,male,VS,F,49,E14,201.763671875
0,1,0,26209,0.85546875,0.14453125,3,1,14,75,4,1384.67309570312,373.568664550781,0,1,faces,male,1,1,faces,P,male,VS,F,49,E14,201.763671875
2,1,0,26210,1.056640625,0.1015625,4,1,10,59,5,1190.54992675781,558.090454101562,1,0,NaN,NaN,1,1,faces,P,male,VS,F,49,E14,201.763671875
0,1,0,26211,2.494140625,0.40234375,5,0,12,64,6,1264.99963378906,162.753540039062,0,1,faces,male,1,1,faces,P,male,VS,F,49,E14,201.763671875
0,1,0,26212,2.966796875,0.115234375,6,0,11,60,7,1119.580078125,629.528137207031,0,1,faces,female,1,1,faces,P,male,VS,F,49,E14,201.763671875
3,0,0,26213,3.98828125,0.587890625,7,0,10,59,8,1144.30224609375,572.380737304688,1,0,NaN,NaN,1,1,faces,P,male,VS,F,49,E14,201.763671875
0,1,0,26228,0.978515625,0.232421875,1,1,2,9,5,542.054443359375,987.18701171875,0,1,objects,small,1,1,objects,P,small,VS,O,50,E14,205.962890625
0,0,0,26231,1.5859375,0.216796875,2,1,5,19,8,753.769958496094,133.51025390625,1,0,NaN,NaN,1,1,objects,P,small,VS,O,50,E14,205.962890625
1,1,0,26240,0.25390625,0.2421875,1,1,6,41,1,975.870849609375,508.979858398438,0,1,faces,female,0,1,faces,A,female,EX,F,51,E14,210.162109375
0,1,0,26242,0.642578125,0.19921875,2,1,1,11,3,652.649291992188,283.689788818359,0,1,objects,small,0,1,faces,A,female,EX,F,51,E14,210.162109375
0,1,0,26244,1.27734375,0.1640625,3,1,7,44,5,951.681518554688,799.427551269531,0,1,objects,big,0,1,faces,A,female,EX,F,51,E14,210.162109375
1,1,0,26245,1.4609375,0.640625,4,1,4,34,6,847.082336425781,766.8525390625,0,1,faces,female,0,1,faces,A,female,EX,F,51,E14,210.162109375
0,1,1,26246,2.134765625,0.12890625,5,0,12,70,7,1234.21594238281,771.260437011719,0,1,faces,female,0,1,faces,A,female,EX,F,51,E14,210.162109375
2,1,1,26248,2.5234375,0.201171875,6,0,4,34,9,849.398315429688,761.962097167969,0,1,faces,female,0,1,faces,A,female,EX,F,51,E14,210.162109375
2,1,0,26250,2.966796875,0.189453125,7,0,6,41,11,930.042602539062,525.358032226562,0,1,faces,female,0,1,faces,A,female,EX,F,51,E14,210.162109375
0,1,0,26251,3.19140625,0.412109375,8,0,5,40,12,940.139831542969,455.898956298828,0,1,faces,male,0,1,faces,A,female,EX,F,51,E14,210.162109375
0,1,0,26252,3.630859375,0.572265625,9,0,9,48,13,1046.80993652344,367.269500732422,0,1,faces,female,0,1,faces,A,female,EX,F,51,E14,210.162109375
0,1,1,26265,0.263671875,0.16015625,1,1,5,24,1,741.668334960938,613.102966308594,0,1,faces,male,1,0,faces,P,female,VS,I,52,E14,214.361328125
0,1,0,26268,0.8515625,0.2734375,2,1,9,49,4,1052.791015625,486.352172851562,0,1,faces,female,1,0,faces,P,female,VS,I,52,E14,214.361328125
0,0,1,26270,1.306640625,0.5390625,3,1,10,57,6,1151.78979492188,379.595642089844,1,0,NaN,NaN,1,0,faces,P,female,VS,I,52,E14,214.361328125
0,0,1,26274,2.560546875,0.1328125,4,1,14,78,10,1341.810546875,687.48486328125,0,1,faces,female,1,0,faces,P,female,VS,I,52,E14,214.361328125
0,0,0,26276,2.9296875,0.474609375,5,0,13,69,12,1256.81103515625,668.397033691406,0,1,faces,male,1,0,faces,P,female,VS,I,52,E14,214.361328125
0,0,0,26277,3.47265625,0.1640625,6,0,6,26,13,736.701843261719,879.839477539062,0,1,objects,small,1,0,faces,P,female,VS,I,52,E14,214.361328125
0,0,0,26278,3.669921875,0.173828125,7,0,7,35,14,847.166870117188,862.392211914062,0,1,faces,female,1,0,faces,P,female,VS,I,52,E14,214.361328125
1,1,0,26299,0.3125,0.166015625,1,1,5,21,2,736.871765136719,386.556671142578,0,1,faces,male,0,1,objects,A,small,VS,O,53,E14,218.560546875
0,1,0,26300,0.5390625,0.19140625,2,1,7,48,3,1083.98034667969,364.679595947266,0,1,objects,big,0,1,objects,A,small,VS,O,53,E14,218.560546875
1,1,0,26303,1.13671875,0.19140625,3,1,8,52,6,1091.39233398438,696.230285644531,0,1,objects,small,0,1,objects,A,small,VS,O,53,E14,218.560546875
0,1,0,26306,1.904296875,0.1796875,4,1,6,47,9,1076.25402832031,249.6376953125,0,1,faces,female,0,1,objects,A,small,VS,O,53,E14,218.560546875
0,1,0,26307,2.15625,0.197265625,5,0,2,4,10,565.914978027344,489.486572265625,0,1,faces,female,0,1,objects,A,small,VS,O,53,E14,218.560546875
0,1,0,26309,2.494140625,0.13671875,6,0,1,2,12,546.913269042969,289.085906982422,0,1,faces,male,0,1,objects,A,small,VS,O,53,E14,218.560546875
2,1,0,26310,2.66796875,0.130859375,7,0,5,21,13,739.275390625,385.298004150391,0,1,faces,male,0,1,objects,A,small,VS,O,53,E14,218.560546875
0,1,0,26312,3.111328125,0.115234375,8,0,15,81,15,1344.94677734375,966.84228515625,0,1,faces,female,0,1,objects,A,small,VS,O,53,E14,218.560546875
2,1,0,26315,3.6953125,0.291015625,9,0,8,52,18,1073.64111328125,739.915222167969,0,1,objects,small,0,1,objects,A,small,VS,O,53,E14,218.560546875
0,1,0,26329,0.201171875,0.18359375,1,1,12,50,1,1051.39221191406,520.644653320312,0,1,faces,female,1,1,faces,P,female,VS,F,54,E14,222.759765625
0,1,0,26330,0.41796875,0.2265625,2,1,11,49,2,1080.84814453125,443.926696777344,0,1,faces,female,1,1,faces,P,female,VS,F,54,E14,222.759765625
1,1,0,26331,0.708984375,0.109375,3,1,6,22,3,725.7412109375,392.598693847656,1,0,NaN,NaN,1,1,faces,P,female,VS,F,54,E14,222.759765625
0,1,0,26332,0.8515625,0.134765625,4,1,3,12,4,669.106567382812,376.054077148438,0,1,faces,male,1,1,faces,P,female,VS,F,54,E14,222.759765625
2,1,1,26334,1.150390625,0.169921875,5,0,6,22,6,750.205749511719,489.481140136719,1,0,NaN,NaN,1,1,faces,P,female,VS,F,54,E14,222.759765625
0,0,0,26336,1.845703125,0.11328125,6,0,2,9,8,512.433471679688,968.055969238281,0,1,faces,male,1,1,faces,P,female,VS,F,54,E14,222.759765625
0,0,0,26340,2.49609375,0.15625,7,0,14,70,12,1278.30554199219,739.573486328125,0,1,faces,female,1,1,faces,P,female,VS,F,54,E14,222.759765625
0,0,0,26344,3.62109375,0.25,8,0,7,37,16,924.356201171875,168.176696777344,0,1,faces,female,1,1,faces,P,female,VS,F,54,E14,222.759765625
0,0,0,26345,3.912109375,0.177734375,9,0,8,39,17,932.087890625,358.374755859375,0,1,faces,female,1,1,faces,P,female,VS,F,54,E14,222.759765625
0,1,0,26355,0.234375,0.212890625,1,1,10,42,1,957.7197265625,594.454345703125,0,1,objects,big,1,1,objects,P,small,VS,O,55,E14,226.958984375
1,1,1,26357,0.642578125,0.15234375,2,1,2,15,3,633.494018554688,681.083801269531,1,0,NaN,NaN,1,1,objects,P,small,VS,O,55,E14,226.958984375
0,0,0,26359,1.07421875,0.265625,3,1,3,16,5,628.456237792969,709.7861328125,0,1,faces,male,1,1,objects,P,small,VS,O,55,E14,226.958984375
2,0,0,26360,1.35546875,2.98828125,4,1,2,15,6,621.739624023438,667.129211425781,1,0,NaN,NaN,1,1,objects,P,small,VS,O,55,E14,226.958984375
1,1,0,26372,0.248046875,0.193359375,1,1,7,42,1,941.616943359375,628.9931640625,0,1,objects,small,1,1,objects,P,big,VS,O,56,E14,231.158203125
0,1,1,26374,0.642578125,0.142578125,2,1,6,39,3,927.172424316406,313.280700683594,0,1,faces,male,1,1,objects,P,big,VS,O,56,E14,231.158203125
0,1,0,26375,0.814453125,0.134765625,3,1,5,38,4,930.595031738281,240.906478881836,0,1,faces,male,1,1,objects,P,big,VS,O,56,E14,231.158203125
0,1,0,26377,1.171875,0.150390625,4,1,3,16,6,614.076049804688,725.239990234375,0,1,faces,male,1,1,objects,P,big,VS,O,56,E14,231.158203125
2,1,0,26379,1.466796875,0.17578125,5,0,7,42,8,961.732482910156,672.254028320312,0,1,objects,small,1,1,objects,P,big,VS,O,56,E14,231.158203125
0,1,0,26380,1.67578125,0.2109375,6,0,8,52,9,1064.23791503906,743.746948242188,0,1,objects,small,1,1,objects,P,big,VS,O,56,E14,231.158203125
0,1,0,26381,1.921875,0.220703125,7,0,13,71,10,1251.74462890625,850.699523925781,0,1,faces,female,1,1,objects,P,big,VS,O,56,E14,231.158203125
0,1,0,26382,2.17578125,0.189453125,8,0,11,60,11,1184.83581542969,671.177429199219,0,1,objects,big,1,1,objects,P,big,VS,O,56,E14,231.158203125
1,1,1,26383,2.431640625,0.13671875,9,0,14,80,12,1380.68530273438,887.027099609375,1,0,NaN,NaN,1,1,objects,P,big,VS,O,56,E14,231.158203125
2,0,1,26388,3.376953125,0.306640625,10,0,14,80,17,1394.71374511719,855.715881347656,1,0,NaN,NaN,1,1,objects,P,big,VS,O,56,E14,231.158203125
1,1,0,26406,0.28515625,0.232421875,1,1,6,30,2,854.405151367188,352.698211669922,0,1,objects,small,0,0,faces,A,female,EX,I,57,E14,235.357421875
0,1,0,26409,0.99609375,0.130859375,2,1,9,58,5,1168.51428222656,475.742706298828,0,1,faces,female,0,0,faces,A,female,EX,I,57,E14,235.357421875
0,1,0,26410,1.861328125,0.236328125,3,1,11,65,6,1277.37365722656,272.979858398438,0,1,objects,big,0,0,faces,A,female,EX,I,57,E14,235.357421875
0,1,0,26411,2.166015625,0.26171875,4,1,7,31,7,851.45556640625,397.490081787109,0,1,faces,male,0,0,faces,A,female,EX,I,57,E14,235.357421875
2,1,0,26412,2.4453125,0.203125,5,0,6,30,8,851.668640136719,355.842620849609,0,1,objects,small,0,0,faces,A,female,EX,I,57,E14,235.357421875
0,1,0,26413,2.68359375,0.388671875,6,0,3,21,9,738.861022949219,366.115844726562,0,1,faces,female,0,0,faces,A,female,EX,I,57,E14,235.357421875
3,1,0,26414,3.103515625,0.3203125,7,0,6,30,10,844.238647460938,372.02978515625,0,1,objects,small,0,0,faces,A,female,EX,I,57,E14,235.357421875
0,1,0,26416,3.638671875,0.568359375,8,0,10,61,12,1162.701171875,755.53857421875,0,1,faces,male,0,0,faces,A,female,EX,I,57,E14,235.357421875
0,1,1,26434,0.205078125,0.107421875,1,1,10,58,2,1134.27465820312,468.551605224609,0,1,faces,female,0,1,faces,A,male,VS,F,58,E14,239.556640625
0,1,0,26436,0.595703125,0.185546875,2,1,14,74,4,1325.81616210938,267.317199707031,0,1,faces,female,0,1,faces,A,male,VS,F,58,E14,239.556640625
0,1,0,26437,0.798828125,0.125,3,1,12,65,5,1277.24926757812,263.056335449219,0,1,faces,male,0,1,faces,A,male,VS,F,58,E14,239.556640625
0,1,0,26441,1.595703125,0.158203125,4,1,5,15,9,635.282470703125,682.578674316406,0,1,faces,male,0,1,faces,A,male,VS,F,58,E14,239.556640625
0,1,0,26443,1.9375,0.283203125,5,0,4,12,11,631.250854492188,357.581604003906,0,1,faces,female,0,1,faces,A,male,VS,F,58,E14,239.556640625
0,1,0,26444,2.267578125,0.20703125,6,0,1,1,12,519.223266601562,181.384948730469,0,1,faces,male,0,1,faces,A,male,VS,F,58,E14,239.556640625
0,1,0,26445,2.5078125,0.263671875,7,0,3,11,13,638.830688476562,267.532318115234,0,1,faces,male,0,1,faces,A,male,VS,F,58,E14,239.556640625
0,1,1,26446,2.841796875,0.107421875,8,0,7,43,14,944.323791503906,775.620361328125,0,1,faces,male,0,1,faces,A,male,VS,F,58,E14,239.556640625
0,1,0,26448,3.171875,0.189453125,9,0,6,24,16,756.30517578125,652.347229003906,0,1,faces,female,0,1,faces,A,male,VS,F,58,E14,239.556640625
0,1,1,26449,3.408203125,0.158203125,10,0,11,62,17,1156.29138183594,824.655395507812,0,1,faces,male,0,1,faces,A,male,VS,F,58,E14,239.556640625
1,1,0,26466,0.45703125,0.140625,1,1,8,24,3,787.31494140625,651.092529296875,0,1,objects,big,0,1,objects,A,big,VS,O,59,E14,243.755859375
0,1,0,26467,0.634765625,0.166015625,2,1,6,14,4,647.478637695312,552.295288085938,0,1,faces,male,0,1,objects,A,big,VS,O,59,E14,243.755859375
0,1,1,26469,1.017578125,0.109375,3,1,2,2,6,563.997924804688,289.402313232422,0,1,objects,small,0,1,objects,A,big,VS,O,59,E14,243.755859375
0,1,0,26472,1.529296875,0.119140625,4,1,15,75,9,1352.81921386719,377.886779785156,0,1,faces,female,0,1,objects,A,big,VS,O,59,E14,243.755859375
0,1,0,26475,2.015625,0.10546875,5,0,3,6,12,547.568054199219,687.805114746094,0,1,faces,male,0,1,objects,A,big,VS,O,59,E14,243.755859375
2,1,1,26476,2.171875,0.126953125,6,0,8,24,13,774.90234375,672.012573242188,0,1,objects,big,0,1,objects,A,big,VS,O,59,E14,243.755859375
0,1,1,26478,2.515625,0.15234375,7,0,12,59,15,1119.29650878906,537.845092773438,0,1,faces,female,0,1,objects,A,big,VS,O,59,E14,243.755859375
0,1,0,26485,3.517578125,0.23828125,8,0,14,70,22,1279.67431640625,759.564819335938,0,1,faces,male,0,1,objects,A,big,VS,O,59,E14,243.755859375
1,1,0,26498,0.388671875,0.16015625,1,1,12,49,2,1063.64086914062,433.776824951172,0,1,faces,female,0,1,faces,A,female,VS,I,60,E14,247.955078125
1,1,1,26500,0.74609375,0.181640625,2,1,9,38,4,951.567016601562,263.483428955078,0,1,objects,small,0,1,faces,A,female,VS,I,60,E14,247.955078125
0,1,0,26501,1.005859375,0.158203125,3,1,3,9,5,553.128479003906,891.771423339844,0,1,faces,female,0,1,faces,A,female,VS,I,60,E14,247.955078125
0,1,0,26507,1.982421875,0.103515625,4,1,13,53,11,1095.54699707031,804.898681640625,0,1,faces,female,0,1,faces,A,female,VS,I,60,E14,247.955078125
0,1,0,26509,2.3671875,0.1171875,5,0,1,2,13,572.336364746094,257.013000488281,0,1,faces,male,0,1,faces,A,female,VS,I,60,E14,247.955078125
2,1,1,26515,3.2421875,0.30859375,6,0,12,49,19,1052.71166992188,459.322326660156,0,1,faces,female,0,1,faces,A,female,VS,I,60,E14,247.955078125
2,1,0,26518,3.8671875,0.1796875,7,0,9,38,22,945.325805664062,282.156829833984,0,1,objects,small,0,1,faces,A,female,VS,I,60,E14,247.955078125
1,1,0,26530,0.423828125,0.12890625,1,1,8,49,2,1084.25048828125,441.46435546875,0,1,faces,male,0,1,faces,A,female,VS,F,61,E14,252.154296875
1,1,0,26531,0.615234375,0.134765625,2,1,14,75,3,1351.2998046875,351.589172363281,0,1,objects,small,0,1,faces,A,female,VS,F,61,E14,252.154296875
0,1,0,26532,0.78515625,0.177734375,3,1,13,74,4,1388.11584472656,251.627227783203,0,1,faces,female,0,1,faces,A,female,VS,F,61,E14,252.154296875
0,1,0,26533,0.9921875,0.2109375,4,1,12,73,5,1371.8916015625,159.09260559082,0,1,faces,female,0,1,faces,A,female,VS,F,61,E14,252.154296875
0,1,0,26534,1.240234375,0.201171875,5,0,10,64,6,1274.537109375,147.535064697266,0,1,faces,female,0,1,faces,A,female,VS,F,61,E14,252.154296875
0,1,1,26535,1.51953125,0.138671875,6,0,3,16,7,696.716186523438,740.26171875,0,1,faces,male,0,1,faces,A,female,VS,F,61,E14,252.154296875
0,1,0,26537,1.8203125,0.203125,7,0,7,34,9,826.361694335938,727.088317871094,0,1,faces,male,0,1,faces,A,female,VS,F,61,E14,252.154296875
0,1,0,26541,2.76171875,0.126953125,8,0,2,4,13,537.060119628906,391.979827880859,0,1,faces,male,0,1,faces,A,female,VS,F,61,E14,252.154296875
1,1,0,26542,2.9375,0.169921875,9,0,4,22,14,720.634338378906,468.072875976562,0,1,faces,female,0,1,faces,A,female,VS,F,61,E14,252.154296875
2,1,0,26543,3.16796875,0.138671875,10,0,8,49,15,1065.55078125,457.148498535156,0,1,faces,male,0,1,faces,A,female,VS,F,61,E14,252.154296875
2,1,1,26544,3.3671875,0.12109375,11,0,4,22,16,750.896240234375,488.696746826172,0,1,faces,female,0,1,faces,A,female,VS,F,61,E14,252.154296875
2,1,0,26547,3.794921875,0.203125,12,0,14,75,19,1367.56335449219,383.534301757812,0,1,objects,small,0,1,faces,A,female,VS,F,61,E14,252.154296875
1,1,0,26562,0.283203125,0.1953125,1,1,10,39,2,937.362121582031,376.192077636719,0,1,objects,small,0,1,faces,A,male,EX,I,62,E14,256.353515625
0,1,0,26564,0.7890625,0.26953125,2,1,5,25,4,731.330993652344,771.355712890625,0,1,faces,female,0,1,faces,A,male,EX,I,62,E14,256.353515625
0,1,1,26566,1.296875,0.138671875,3,1,7,30,6,854.300476074219,379.599822998047,0,1,faces,male,0,1,faces,A,male,EX,I,62,E14,256.353515625
0,1,0,26568,1.6328125,0.169921875,4,1,13,65,8,1249.79431152344,269.194213867188,0,1,objects,big,0,1,faces,A,male,EX,I,62,E14,256.353515625
0,1,0,26569,1.841796875,0.25390625,5,0,15,74,9,1375.26684570312,277.979431152344,0,1,faces,male,0,1,faces,A,male,EX,I,62,E14,256.353515625
1,1,0,26570,2.173828125,0.26171875,6,0,3,14,10,635.201843261719,542.630859375,0,1,faces,male,0,1,faces,A,male,EX,I,62,E14,256.353515625
0,1,0,26571,2.486328125,0.119140625,7,0,6,29,11,833.312866210938,258.951507568359,0,1,faces,female,0,1,faces,A,male,EX,I,62,E14,256.353515625
0,1,0,26572,2.634765625,0.41015625,8,0,9,37,12,950.598388671875,163.207595825195,0,1,faces,female,0,1,faces,A,male,EX,I,62,E14,256.353515625
2,1,0,26574,3.25390625,0.32421875,9,0,3,14,14,633.109069824219,564.120178222656,0,1,faces,male,0,1,faces,A,male,EX,I,62,E14,256.353515625
0,1,0,26575,3.6171875,0.224609375,10,0,4,16,15,697.642578125,772.995849609375,0,1,faces,female,0,1,faces,A,male,EX,I,62,E14,256.353515625
2,1,0,26576,3.892578125,0.4375,11,0,10,39,16,912.758728027344,348.93896484375,0,1,objects,small,0,1,faces,A,male,EX,I,62,E14,256.353515625
0,1,0,26599,0.21875,0.37890625,1,1,9,49,1,1086.7607421875,394.046997070312,0,1,faces,female,0,1,objects,A,big,EX,O,63,E14,260.552734375
0,1,1,26601,0.716796875,0.158203125,2,1,6,29,3,833.848022460938,284.564514160156,0,1,faces,female,0,1,objects,A,big,EX,O,63,E14,260.552734375
0,1,0,26603,1.533203125,0.25390625,3,1,8,47,5,1062.63146972656,247.579727172852,0,1,faces,male,0,1,objects,A,big,EX,O,63,E14,260.552734375
0,1,1,26605,2,0.142578125,4,1,14,70,7,1273.64599609375,740.458862304688,0,1,faces,male,0,1,objects,A,big,EX,O,63,E14,260.552734375
0,1,1,26607,2.96875,0.490234375,5,0,2,13,9,632.943481445312,451.1064453125,0,1,faces,male,0,1,objects,A,big,EX,O,63,E14,260.552734375
0,1,0,26627,0.21875,0.1875,1,1,4,23,1,752.972900390625,556.589294433594,0,1,objects,big,1,1,faces,P,male,VS,F,64,E14,264.751953125
0,1,0,26628,0.470703125,0.12890625,2,1,9,47,2,1048.63696289062,196.774429321289,0,1,faces,male,1,1,faces,P,male,VS,F,64,E14,264.751953125
0,1,0,26629,0.625,0.173828125,3,1,11,55,3,1156.87109375,175.389312744141,0,1,faces,female,1,1,faces,P,male,VS,F,64,E14,264.751953125
0,1,1,26630,0.83203125,0.125,4,1,8,46,4,1058.03576660156,171.853591918945,1,0,NaN,NaN,1,1,faces,P,male,VS,F,64,E14,264.751953125
0,1,1,26648,0.466796875,0.208984375,1,1,4,14,3,637.168640136719,585.350158691406,0,1,faces,female,1,1,objects,P,small,VS,O,65,E14,268.951171875
0,1,0,26651,1.05078125,0.177734375,2,1,8,37,6,911.997741699219,182.021743774414,0,1,faces,female,1,1,objects,P,small,VS,O,65,E14,268.951171875
0,1,0,26653,1.60546875,0.13671875,3,1,5,19,8,716.913757324219,178.928909301758,0,1,faces,female,1,1,objects,P,small,VS,O,65,E14,268.951171875
0,1,1,26661,2.767578125,0.103515625,4,1,13,71,16,1286.34020996094,835.196838378906,1,0,NaN,NaN,1,1,objects,P,small,VS,O,65,E14,268.951171875
0,1,0,26662,2.943359375,0.302734375,5,0,15,76,17,1367.09460449219,398.337310791016,0,1,faces,male,1,1,objects,P,small,VS,O,65,E14,268.951171875
0,1,0,26663,3.275390625,0.185546875,6,0,12,65,18,1280.88793945312,273.336090087891,0,1,objects,big,1,1,objects,P,small,VS,O,65,E14,268.951171875
0,1,0,26687,0.443359375,0.162109375,1,1,8,52,2,1101.77746582031,744.934875488281,0,1,objects,big,0,1,objects,A,small,EX,O,66,E14,273.150390625
0,1,0,26689,1.48046875,0.4921875,2,1,5,31,4,833.568786621094,430.449371337891,0,1,objects,small,0,1,objects,A,small,EX,O,66,E14,273.150390625
0,1,1,26690,2.013671875,0.140625,3,1,4,30,5,837.697937011719,331.017700195312,0,1,faces,male,0,1,objects,A,small,EX,O,66,E14,273.150390625
0,1,1,26692,2.46484375,0.15234375,4,1,6,37,7,916.407043457031,151.120300292969,0,1,objects,small,0,1,objects,A,small,EX,O,66,E14,273.150390625
0,1,0,26694,2.88671875,0.408203125,5,0,10,56,9,1178.56140136719,239.776290893555,0,1,faces,male,0,1,objects,A,small,EX,O,66,E14,273.150390625
0,1,1,26695,3.328125,0.15234375,6,0,15,73,10,1350.162109375,149.805282592773,0,1,faces,female,0,1,objects,A,small,EX,O,66,E14,273.150390625
0,1,0,26697,3.8515625,0.39453125,7,0,11,59,12,1147.11901855469,539.952880859375,0,1,objects,small,0,1,objects,A,small,EX,O,66,E14,273.150390625
0,1,1,26722,0.482421875,0.1015625,1,1,5,42,2,1007.53430175781,595.568115234375,0,1,faces,male,1,1,faces,P,male,VS,F,67,E14,277.349609375
1,0,0,26729,1.798828125,0.279296875,2,1,2,9,9,514.491394042969,978.394470214844,1,0,NaN,NaN,1,1,faces,P,male,VS,F,67,E14,277.349609375
2,0,1,26737,3.169921875,0.13671875,3,1,2,9,17,526.631164550781,986.107727050781,1,0,NaN,NaN,1,1,faces,P,male,VS,F,67,E14,277.349609375
0,1,0,26764,0.384765625,0.12109375,1,1,13,50,2,1051.8310546875,526.938415527344,0,1,objects,big,1,1,faces,P,female,VS,I,68,E14,281.548828125
0,1,0,26770,1.513671875,0.31640625,2,1,8,29,8,822.909240722656,224.310516357422,0,1,faces,male,1,1,faces,P,female,VS,I,68,E14,281.548828125
0,1,1,26771,1.876953125,0.154296875,3,1,12,46,9,1022.84857177734,133.034545898438,0,1,faces,female,1,1,faces,P,female,VS,I,68,E14,281.548828125
1,0,0,26773,2.185546875,0.265625,4,1,3,20,11,744.636169433594,239.110626220703,1,0,NaN,NaN,1,1,faces,P,female,VS,I,68,E14,281.548828125
2,0,0,26776,2.83984375,1.484375,5,0,3,20,14,740.119506835938,258.690826416016,1,0,NaN,NaN,1,1,faces,P,female,VS,I,68,E14,281.548828125
0,1,0,26795,0.41796875,0.24609375,1,1,9,32,2,844.663146972656,541.0869140625,0,1,faces,female,0,1,faces,A,male,VS,I,69,E14,285.748046875
0,1,0,26796,0.712890625,0.11328125,2,1,2,6,3,549.478515625,659.739868164062,0,1,faces,male,0,1,faces,A,male,VS,I,69,E14,285.748046875
0,1,0,26799,1.166015625,0.146484375,3,1,1,1,6,550.805908203125,177.908432006836,0,1,faces,male,0,1,faces,A,male,VS,I,69,E14,285.748046875
1,1,0,26800,1.439453125,0.23828125,4,1,3,11,7,629.759643554688,258.298400878906,0,1,faces,male,0,1,faces,A,male,VS,I,69,E14,285.748046875
1,1,0,26801,1.701171875,0.283203125,5,0,4,19,8,740.019653320312,173.434967041016,0,1,faces,male,0,1,faces,A,male,VS,I,69,E14,285.748046875
2,1,1,26802,2.029296875,0.16796875,6,0,3,11,9,645.059204101562,281.887786865234,0,1,faces,male,0,1,faces,A,male,VS,I,69,E14,285.748046875
2,1,0,26804,2.3984375,0.29296875,7,0,4,19,11,733.740478515625,176.678482055664,0,1,faces,male,0,1,faces,A,male,VS,I,69,E14,285.748046875
0,1,0,26805,2.763671875,0.12109375,8,0,6,25,12,796.289672851562,790.377258300781,0,1,faces,male,0,1,faces,A,male,VS,I,69,E14,285.748046875
0,1,0,26806,2.92578125,0.1328125,9,0,11,34,13,848.304016113281,752.646606445312,0,1,faces,female,0,1,faces,A,male,VS,I,69,E14,285.748046875
0,1,0,26809,3.4140625,0.109375,10,0,7,26,16,726.11279296875,878.32763671875,0,1,faces,female,0,1,faces,A,male,VS,I,69,E14,285.748046875
0,1,1,26810,3.599609375,0.140625,11,0,15,77,17,1368.35009765625,527.098327636719,0,1,faces,female,0,1,faces,A,male,VS,I,69,E14,285.748046875
1,1,0,26846,0.291015625,0.146484375,1,1,9,49,2,1046.32299804688,448.3583984375,1,0,NaN,NaN,1,1,faces,P,male,VS,I,70,E14,289.947265625
2,1,1,26849,0.71875,0.111328125,2,1,9,49,5,1055.24450683594,404.343414306641,1,0,NaN,NaN,1,1,faces,P,male,VS,I,70,E14,289.947265625
0,0,0,26851,1.205078125,0.146484375,3,1,8,46,7,1023.81658935547,159.052322387695,0,1,faces,female,1,1,faces,P,male,VS,I,70,E14,289.947265625
1,0,0,26852,1.37109375,0.103515625,4,1,7,37,8,1009.59100341797,141.227645874023,0,1,faces,male,1,1,faces,P,male,VS,I,70,E14,289.947265625
2,0,0,26854,1.603515625,0.189453125,5,0,7,37,10,963.321411132812,141.020812988281,0,1,faces,male,1,1,faces,P,male,VS,I,70,E14,289.947265625
1,0,0,26855,1.822265625,0.22265625,6,0,4,19,11,734.32373046875,150.987106323242,0,1,faces,male,1,1,faces,P,male,VS,I,70,E14,289.947265625
2,0,1,26858,2.279296875,0.10546875,7,0,4,19,14,767.6171875,162.160675048828,0,1,faces,male,1,1,faces,P,male,VS,I,70,E14,289.947265625
0,0,1,26860,2.857421875,0.150390625,8,0,3,14,16,613.042602539062,544.935180664062,0,1,faces,male,1,1,faces,P,male,VS,I,70,E14,289.947265625
1,1,1,26890,0.21484375,0.134765625,1,1,5,22,3,802.828674316406,414.244354248047,0,1,faces,male,0,1,faces,A,male,EX,F,71,E14,294.146484375
0,1,1,26893,0.67578125,0.51953125,2,1,4,21,6,734.841430664062,324.526184082031,0,1,faces,male,0,1,faces,A,male,EX,F,71,E14,294.146484375
0,1,0,26894,1.2578125,0.1015625,3,1,3,20,7,737.2294921875,258.336944580078,0,1,faces,female,0,1,faces,A,male,EX,F,71,E14,294.146484375
0,1,1,26897,2.26953125,0.1171875,4,1,9,50,10,1072.00866699219,556.476684570312,0,1,faces,female,0,1,faces,A,male,EX,F,71,E14,294.146484375
2,1,1,26900,3.15234375,0.126953125,5,0,5,22,13,750.894714355469,417.024139404297,0,1,faces,male,0,1,faces,A,male,EX,F,71,E14,294.146484375
0,1,0,26943,0.82421875,0.224609375,1,1,15,76,7,1405.93127441406,408.606658935547,0,1,faces,male,1,1,faces,P,male,VS,I,72,E14,298.345703125
0,1,0,26946,1.369140625,0.21484375,2,1,6,37,10,931.708801269531,127.915130615234,0,1,faces,male,1,1,faces,P,male,VS,I,72,E14,298.345703125
0,1,0,26948,1.8203125,0.123046875,3,1,2,14,12,656.005737304688,537.751892089844,0,1,objects,small,1,1,faces,P,male,VS,I,72,E14,298.345703125
0,1,1,26951,2.314453125,0.130859375,4,1,4,23,15,738.13427734375,569.086730957031,1,0,NaN,NaN,1,1,faces,P,male,VS,I,72,E14,298.345703125
1,1,0,27294,0.251953125,0.150390625,1,1,12,57,1,1165.75341796875,370.771545410156,1,0,NaN,NaN,1,1,objects,P,small,VS,O,73,E14,302.544921875
2,0,0,27296,0.736328125,0.421875,2,1,12,57,3,1154.96350097656,360.329437255859,1,0,NaN,NaN,1,1,objects,P,small,VS,O,73,E14,302.544921875
0,0,0,27297,2.19140625,0.318359375,3,1,13,68,4,1261.12670898438,534.16796875,0,1,faces,female,1,1,objects,P,small,VS,O,73,E14,302.544921875
3,0,0,27298,3.517578125,0.771484375,4,1,12,57,5,1163.47644042969,343.116027832031,1,0,NaN,NaN,1,1,objects,P,small,VS,O,73,E14,302.544921875
1,1,0,27321,0.5,0.177734375,1,1,6,31,5,894.930908203125,400.144744873047,0,1,faces,male,0,1,objects,A,small,VS,O,74,E14,306.744140625
0,1,1,27330,2.291015625,0.126953125,2,1,3,11,14,652.766357421875,261.100555419922,0,1,objects,small,0,1,objects,A,small,VS,O,74,E14,306.744140625
0,1,0,27334,2.931640625,0.134765625,3,1,12,59,18,1185.9638671875,549.442199707031,0,1,faces,female,0,1,objects,A,small,VS,O,74,E14,306.744140625
0,1,0,27335,3.18359375,0.138671875,4,1,7,33,19,861.202514648438,638.129211425781,0,1,objects,big,0,1,objects,A,small,VS,O,74,E14,306.744140625
0,1,1,27337,3.5234375,0.212890625,5,0,4,28,21,854.551086425781,153.509155273438,0,1,objects,small,0,1,objects,A,small,VS,O,74,E14,306.744140625
2,1,0,27339,3.888671875,0.134765625,6,0,6,31,23,861.876770019531,396.609771728516,0,1,faces,male,0,1,objects,A,small,VS,O,74,E14,306.744140625
0,1,0,27366,1.208984375,0.125,1,1,13,73,5,1363.79748535156,155.408874511719,0,1,faces,female,0,1,objects,A,big,VS,O,75,E14,310.943359375
0,1,0,27367,1.41796875,0.154296875,2,1,8,37,6,934.266540527344,130.922073364258,0,1,objects,small,0,1,objects,A,big,VS,O,75,E14,310.943359375
0,1,0,27373,2.71875,0.123046875,3,1,1,1,12,518.180847167969,151.375366210938,0,1,faces,male,0,1,objects,A,big,VS,O,75,E14,310.943359375
0,1,1,27377,3.646484375,0.185546875,4,1,12,67,16,1282.81872558594,450.628234863281,0,1,objects,big,0,1,objects,A,big,VS,O,75,E14,310.943359375
1,1,0,27405,0.658203125,0.150390625,1,1,6,23,6,752.266967773438,531.367797851562,0,1,faces,male,1,0,faces,P,female,VS,F,76,E14,315.142578125
1,1,1,27406,0.865234375,0.103515625,2,1,8,33,7,878.625,615.949523925781,0,1,faces,female,1,0,faces,P,female,VS,F,76,E14,315.142578125
0,1,1,27408,1.390625,0.1171875,3,1,12,70,9,1276.76843261719,781.071105957031,0,1,faces,male,1,0,faces,P,female,VS,F,76,E14,315.142578125
0,1,1,27411,1.8515625,0.123046875,4,1,14,76,12,1380.44775390625,477.710754394531,0,1,faces,male,1,0,faces,P,female,VS,F,76,E14,315.142578125
0,1,0,27414,2.302734375,0.134765625,5,0,3,10,15,642.474609375,177.315719604492,0,1,faces,male,1,0,faces,P,female,VS,F,76,E14,315.142578125
0,1,0,27415,2.46875,0.208984375,6,0,5,20,16,737.885559082031,254.923248291016,0,1,faces,female,1,0,faces,P,female,VS,F,76,E14,315.142578125
0,1,1,27417,2.869140625,0.140625,7,0,2,5,18,516.869873046875,575.212890625,0,1,faces,male,1,0,faces,P,female,VS,F,76,E14,315.142578125
2,1,1,27418,3.0390625,0.1484375,8,0,6,23,19,778.047302246094,572.199096679688,0,1,faces,male,1,0,faces,P,female,VS,F,76,E14,315.142578125
2,1,1,27420,3.34765625,0.123046875,9,0,8,33,21,821.066955566406,618.489379882812,0,1,faces,female,1,0,faces,P,female,VS,F,76,E14,315.142578125
0,1,0,27422,3.712890625,0.111328125,10,0,9,34,23,832.973999023438,733.934387207031,1,0,NaN,NaN,1,0,faces,P,female,VS,F,76,E14,315.142578125
0,1,1,27443,0.5,0.173828125,1,1,8,45,2,959.985717773438,900.189331054688,0,1,faces,male,0,1,faces,A,female,VS,I,77,E14,319.341796875
0,1,0,27447,1.216796875,0.109375,2,1,2,6,6,570.894714355469,677.389709472656,0,1,faces,female,0,1,faces,A,female,VS,I,77,E14,319.341796875
0,1,1,27449,1.640625,0.166015625,3,1,3,13,8,631.382934570312,487.499542236328,0,1,faces,male,0,1,faces,A,female,VS,I,77,E14,319.341796875
0,1,0,27451,2.0078125,0.25,4,1,5,31,10,849.0859375,454.421875,0,1,faces,female,0,1,faces,A,female,VS,I,77,E14,319.341796875
0,1,1,27458,3.380859375,0.138671875,5,0,15,81,17,1363.55859375,980.124877929688,0,1,faces,female,0,1,faces,A,female,VS,I,77,E14,319.341796875
0,1,0,27460,3.810546875,0.576171875,6,0,6,33,19,818.458679199219,662.195861816406,0,1,faces,male,0,1,faces,A,female,VS,I,77,E14,319.341796875
0,1,0,27479,0.26171875,0.115234375,1,1,5,22,1,722.436584472656,436.048309326172,0,1,objects,big,0,1,faces,A,female,EX,F,78,E14,323.541015625
1,1,0,27480,0.419921875,0.126953125,2,1,1,1,2,572.473205566406,164.368896484375,0,1,faces,female,0,1,faces,A,female,EX,F,78,E14,323.541015625
2,1,0,27482,1.431640625,0.203125,3,1,1,1,4,610.108459472656,161.23046875,0,1,faces,female,0,1,faces,A,female,EX,F,78,E14,323.541015625
0,1,1,27483,1.705078125,0.12890625,4,1,8,48,5,1050.81628417969,305.869812011719,0,1,faces,male,0,1,faces,A,female,EX,F,78,E14,323.541015625
0,1,1,27485,2.10546875,0.119140625,5,0,14,68,7,1215.48547363281,516.808532714844,0,1,faces,male,0,1,faces,A,female,EX,F,78,E14,323.541015625
0,1,0,27488,2.75,0.21875,6,0,13,60,10,1154.95812988281,617.015747070312,0,1,faces,female,0,1,faces,A,female,EX,F,78,E14,323.541015625
0,1,0,27489,3.0078125,0.1875,7,0,10,50,11,1051.80554199219,503.71435546875,0,1,objects,small,0,1,faces,A,female,EX,F,78,E14,323.541015625
0,1,1,27490,3.2578125,0.107421875,8,0,6,33,12,821.711791992188,675.691711425781,0,1,objects,small,0,1,faces,A,female,EX,F,78,E14,323.541015625
0,1,0,27492,3.63671875,0.123046875,9,0,4,17,14,636.996643066406,840.935302734375,0,1,faces,female,0,1,faces,A,female,EX,F,78,E14,323.541015625
0,1,0,27516,0.5546875,0.125,1,1,12,59,3,1161.05139160156,542.998291015625,0,1,objects,big,1,1,objects,P,small,VS,O,79,E14,327.740234375
0,1,1,27517,0.716796875,0.158203125,2,1,10,57,4,1203.81640625,387.387634277344,0,1,faces,female,1,1,objects,P,small,VS,O,79,E14,327.740234375
0,1,1,27519,1.0703125,0.13671875,3,1,3,20,6,769.254028320312,287.555816650391,0,1,objects,small,1,1,objects,P,small,VS,O,79,E14,327.740234375
0,1,0,27521,1.4921875,0.12109375,4,1,4,21,8,720.60693359375,331.249786376953,0,1,faces,female,1,1,objects,P,small,VS,O,79,E14,327.740234375
0,1,1,27522,1.673828125,0.12109375,5,0,8,44,9,978.593505859375,821.405639648438,0,1,faces,female,1,1,objects,P,small,VS,O,79,E14,327.740234375
0,1,1,27525,2.115234375,0.19140625,6,0,5,25,12,728.66552734375,736.15673828125,1,0,NaN,NaN,1,1,objects,P,small,VS,O,79,E14,327.740234375
0,1,0,27555,0.509765625,0.1484375,1,1,8,37,4,985.226135253906,168.333190917969,0,1,objects,small,1,1,objects,P,big,VS,O,80,E14,331.939453125
0,1,1,27557,1.125,0.140625,2,1,1,6,6,562.651000976562,677.897766113281,0,1,faces,female,1,1,objects,P,big,VS,O,80,E14,331.939453125
0,1,0,27561,1.87109375,0.17578125,3,1,14,75,10,1315.48120117188,359.790161132812,0,1,faces,female,1,1,objects,P,big,VS,O,80,E14,331.939453125
0,1,1,27562,2.1640625,0.1328125,4,1,9,38,11,1009.64569091797,282.458679199219,0,1,faces,male,1,1,objects,P,big,VS,O,80,E14,331.939453125
0,0,1,27564,2.521484375,0.271484375,5,0,6,21,13,717.53759765625,353.731750488281,1,0,NaN,NaN,1,1,objects,P,big,VS,O,80,E14,331.939453125
0,1,0,27589,0.431640625,0.224609375,1,1,6,30,3,816.792602539062,354.327392578125,0,1,objects,small,0,1,faces,A,female,EX,I,81,E14,336.138671875
0,1,1,27590,1.287109375,0.18359375,2,1,8,38,4,924.880554199219,248.654113769531,0,1,faces,male,0,1,faces,A,female,EX,I,81,E14,336.138671875
0,1,0,27632,0.6953125,0.119140625,1,1,13,58,5,1130.34936523438,417.196960449219,0,1,faces,male,1,1,faces,P,female,VS,F,82,E14,340.337890625
0,1,0,27633,0.8359375,0.220703125,2,1,8,48,6,1049.21752929688,343.845855712891,0,1,faces,female,1,1,faces,P,female,VS,F,82,E14,340.337890625
0,1,0,27634,1.154296875,0.140625,3,1,1,8,7,525.338623046875,871.975341796875,0,1,faces,female,1,1,faces,P,female,VS,F,82,E14,340.337890625
0,1,0,27638,1.80078125,0.1328125,4,1,10,52,11,1097.19299316406,772.054260253906,0,1,objects,small,1,1,faces,P,female,VS,F,82,E14,340.337890625
1,1,1,27639,1.97265625,0.189453125,5,0,14,61,12,1142.26611328125,743.152465820312,1,0,NaN,NaN,1,1,faces,P,female,VS,F,82,E14,340.337890625
2,0,1,27642,2.642578125,0.443359375,6,0,14,61,15,1144.185546875,730.697631835938,1,0,NaN,NaN,1,1,faces,P,female,VS,F,82,E14,340.337890625
3,0,1,27646,3.818359375,0.15625,7,0,14,61,19,1152.9248046875,731.908630371094,1,0,NaN,NaN,1,1,faces,P,female,VS,F,82,E14,340.337890625
0,1,0,27670,0.197265625,0.185546875,1,1,8,31,1,846.538635253906,474.591979980469,0,1,objects,small,0,1,faces,A,male,VS,I,83,E14,344.537109375
0,1,0,27673,0.64453125,0.169921875,2,1,14,74,4,1380.26647949219,280.215209960938,0,1,faces,male,0,1,faces,A,male,VS,I,83,E14,344.537109375
0,1,0,27674,0.857421875,0.12109375,3,1,15,75,5,1397.49255371094,374.367614746094,0,1,faces,male,0,1,faces,A,male,VS,I,83,E14,344.537109375
0,1,0,27676,1.232421875,0.1171875,4,1,11,53,7,1071.36242675781,887.381286621094,0,1,objects,big,0,1,faces,A,male,VS,I,83,E14,344.537109375
0,1,1,27677,1.396484375,0.1640625,5,0,10,52,8,1062.15698242188,760.414916992188,0,1,faces,male,0,1,faces,A,male,VS,I,83,E14,344.537109375
0,1,0,27679,1.767578125,0.158203125,6,0,9,50,10,1059.35485839844,559.999816894531,0,1,objects,big,0,1,faces,A,male,VS,I,83,E14,344.537109375
0,1,1,27680,1.98828125,0.201171875,7,0,5,19,11,743.712097167969,158.777099609375,0,1,faces,female,0,1,faces,A,male,VS,I,83,E14,344.537109375
0,1,0,27682,2.341796875,0.15234375,8,0,7,28,13,827.805725097656,164.242782592773,0,1,faces,female,0,1,faces,A,male,VS,I,83,E14,344.537109375
0,1,0,27683,2.55078125,0.1015625,9,0,2,11,14,634.870849609375,216.702651977539,0,1,objects,small,0,1,faces,A,male,VS,I,83,E14,344.537109375
0,1,0,27684,2.681640625,0.1953125,10,0,1,10,15,619.882873535156,184.834564208984,0,1,faces,male,0,1,faces,A,male,VS,I,83,E14,344.537109375
0,1,0,27688,3.388671875,0.2265625,11,0,3,13,19,611.246215820312,454.715698242188,0,1,faces,female,0,1,faces,A,male,VS,I,83,E14,344.537109375
1,1,0,27707,0.236328125,0.294921875,1,1,8,49,1,1061.5849609375,431.466369628906,0,1,faces,female,0,1,objects,A,small,EX,O,84,E14,348.736328125
0,1,0,27709,0.8125,0.16015625,2,1,11,58,3,1165.78112792969,433.621917724609,0,1,faces,male,0,1,objects,A,small,EX,O,84,E14,348.736328125
2,1,0,27710,1.0078125,0.29296875,3,1,8,49,4,1047.30383300781,428.894989013672,0,1,faces,female,0,1,objects,A,small,EX,O,84,E14,348.736328125
0,1,1,27711,1.33203125,0.15625,4,1,10,57,5,1163.83068847656,348.229553222656,0,1,faces,male,0,1,objects,A,small,EX,O,84,E14,348.736328125
0,1,1,27716,2.373046875,0.130859375,5,0,6,42,10,977.510986328125,600.118591308594,0,1,faces,female,0,1,objects,A,small,EX,O,84,E14,348.736328125
0,1,1,27718,2.783203125,0.150390625,6,0,15,77,12,1332.82641601562,550.949279785156,0,1,objects,small,0,1,objects,A,small,EX,O,84,E14,348.736328125
0,1,1,27720,3.357421875,0.16015625,7,0,12,67,14,1249.20458984375,444.717041015625,0,1,objects,small,0,1,objects,A,small,EX,O,84,E14,348.736328125
0,1,0,27722,3.8046875,0.189453125,8,0,14,74,16,1363.62231445312,262.745697021484,0,1,faces,male,0,1,objects,A,small,EX,O,84,E14,348.736328125
0,1,0,27747,1.236328125,0.13671875,1,1,11,43,6,974.892883300781,689.911010742188,0,1,faces,female,1,1,faces,P,female,VS,I,85,E14,352.935546875
1,1,1,27748,1.525390625,0.189453125,2,1,2,12,7,683.4345703125,303.687194824219,1,0,NaN,NaN,1,1,faces,P,female,VS,I,85,E14,352.935546875
2,0,1,27752,2.365234375,0.1484375,3,1,2,12,11,615.533203125,388.845611572266,1,0,NaN,NaN,1,1,faces,P,female,VS,I,85,E14,352.935546875
1,1,0,27766,0.615234375,0.193359375,1,1,14,78,3,1376.51184082031,666.529663085938,1,0,NaN,NaN,1,1,faces,P,female,VS,I,86,E14,357.134765625
2,1,1,27768,1.13671875,0.130859375,2,1,14,78,5,1388.8828125,672.154968261719,1,0,NaN,NaN,1,1,faces,P,female,VS,I,86,E14,357.134765625
3,0,1,27771,2.404296875,0.28515625,3,1,14,78,8,1389.06164550781,676.592163085938,1,0,NaN,NaN,1,1,faces,P,female,VS,I,86,E14,357.134765625
4,0,1,27779,3.873046875,0.423828125,4,1,14,78,16,1377.77014160156,689.164733886719,1,0,NaN,NaN,1,1,faces,P,female,VS,I,86,E14,357.134765625
0,1,0,27799,0.240234375,0.216796875,1,1,10,49,1,1082.51623535156,474.609588623047,0,1,faces,male,0,1,faces,A,male,EX,F,87,E14,361.333984375
0,1,0,27800,0.52734375,0.220703125,2,1,6,16,2,649.302001953125,745.151733398438,0,1,objects,big,0,1,faces,A,male,EX,F,87,E14,361.333984375
0,1,0,27802,1.98828125,0.248046875,3,1,3,11,4,626.834533691406,262.132751464844,0,1,faces,female,0,1,faces,A,male,EX,F,87,E14,361.333984375
0,1,0,27803,2.263671875,0.109375,4,1,1,1,5,564.2587890625,185.496383666992,0,1,faces,male,0,1,faces,A,male,EX,F,87,E14,361.333984375
0,1,1,27807,2.96484375,0.1953125,5,0,9,47,9,1026.01721191406,257.991180419922,0,1,faces,male,0,1,faces,A,male,EX,F,87,E14,361.333984375
0,1,1,27809,3.431640625,0.11328125,6,0,14,70,11,1256.13452148438,748.23779296875,0,1,faces,male,0,1,faces,A,male,EX,F,87,E14,361.333984375
0,1,0,27838,1.640625,0.12890625,1,1,14,77,8,1384.05676269531,527.609497070312,0,1,objects,small,0,1,objects,A,big,EX,O,88,E14,365.533203125
0,1,0,27839,1.966796875,0.31640625,2,1,6,38,9,956.292602539062,243.68896484375,0,1,faces,male,0,1,objects,A,big,EX,O,88,E14,365.533203125
0,1,0,27840,2.349609375,0.3984375,3,1,13,73,10,1377.1455078125,173.919540405273,0,1,objects,big,0,1,objects,A,big,EX,O,88,E14,365.533203125
0,1,0,27843,3.375,0.119140625,4,1,1,5,13,517.041442871094,565.890014648438,0,1,objects,big,0,1,objects,A,big,EX,O,88,E14,365.533203125
0,0,1,27873,0.537109375,0.3125,1,1,8,50,3,1080.27319335938,497.621673583984,1,0,NaN,NaN,1,1,objects,P,big,VS,O,89,E14,369.732421875
0,1,0,27900,1.748046875,0.1171875,1,1,1,4,6,519.286071777344,458.375793457031,0,1,objects,big,1,1,faces,P,female,VS,F,90,E14,373.931640625
0,1,1,27901,1.9375,0.14453125,2,1,2,11,7,677.9541015625,241.932952880859,0,1,faces,female,1,1,faces,P,female,VS,F,90,E14,373.931640625
0,1,1,27903,2.365234375,0.111328125,3,1,7,49,9,1019.55450439453,398.973388671875,0,1,objects,big,1,1,faces,P,female,VS,F,90,E14,373.931640625
1,1,1,27905,2.619140625,0.130859375,4,1,10,58,11,1184.79565429688,464.491943359375,1,0,NaN,NaN,1,1,faces,P,female,VS,F,90,E14,373.931640625
2,0,1,27910,3.22265625,0.298828125,5,0,10,58,16,1191.68872070312,444.768737792969,1,0,NaN,NaN,1,1,faces,P,female,VS,F,90,E14,373.931640625
0,1,1,27931,0.548828125,0.125,1,1,8,47,3,1080.59936523438,271.986022949219,1,0,NaN,NaN,1,1,faces,P,male,VS,F,91,E14,378.130859375
0,0,0,27938,3.3984375,0.25390625,2,1,12,65,10,1268.59399414062,258.767395019531,0,1,faces,female,1,1,faces,P,male,VS,F,91,E14,378.130859375
0,0,0,27941,3.884765625,0.11328125,3,1,10,60,13,1164.57421875,679.602478027344,0,1,objects,small,1,1,faces,P,male,VS,F,91,E14,378.130859375
0,1,0,27970,0.328125,0.1171875,1,1,10,58,2,1124.41528320312,417.864868164062,0,1,objects,big,0,1,faces,A,male,VS,F,92,E14,382.330078125
1,1,1,27972,0.66015625,0.134765625,2,1,14,76,4,1387.72216796875,456.445434570312,0,1,faces,female,0,1,faces,A,male,VS,F,92,E14,382.330078125
0,1,0,27977,1.671875,0.12890625,3,1,5,42,9,996.371826171875,625.880859375,0,1,faces,male,0,1,faces,A,male,VS,F,92,E14,382.330078125
0,1,0,27981,2.421875,0.14453125,4,1,3,40,13,935.7900390625,415.434295654297,0,1,objects,big,0,1,faces,A,male,VS,F,92,E14,382.330078125
0,1,0,27982,2.6171875,0.224609375,5,0,1,1,14,516.335815429688,159.547912597656,0,1,faces,female,0,1,faces,A,male,VS,F,92,E14,382.330078125
0,1,1,27983,2.8984375,0.125,6,0,4,41,15,935.583862304688,526.903625488281,0,1,faces,male,0,1,faces,A,male,VS,F,92,E14,382.330078125
2,1,1,27985,3.34375,0.162109375,7,0,14,76,17,1345.53112792969,390.581878662109,0,1,faces,female,0,1,faces,A,male,VS,F,92,E14,382.330078125
0,1,1,28008,0.373046875,0.123046875,1,1,10,58,2,1204.61218261719,442.334716796875,0,1,faces,female,0,1,faces,P,male,VS,I,93,E14,386.529296875
0,1,1,28013,2.029296875,0.158203125,2,1,6,34,7,874.224914550781,740.778259277344,0,1,objects,big,0,1,faces,P,male,VS,I,93,E14,386.529296875
0,1,0,28038,0.306640625,0.29296875,1,1,10,52,1,1067.03601074219,717.991394042969,0,1,faces,male,0,1,faces,A,male,EX,I,94,E14,390.728515625
0,1,0,28042,1.126953125,0.53125,2,1,8,49,5,1066.35876464844,461.639892578125,0,1,faces,male,0,1,faces,A,male,EX,I,94,E14,390.728515625
0,1,1,28043,1.693359375,0.181640625,3,1,12,57,6,1155.00842285156,365.054016113281,0,1,faces,female,0,1,faces,A,male,EX,I,94,E14,390.728515625
0,1,0,28045,2.068359375,0.37109375,4,1,15,75,8,1380.75769042969,378.713562011719,0,1,objects,big,0,1,faces,A,male,EX,I,94,E14,390.728515625
0,1,0,28046,2.515625,0.107421875,5,0,4,23,9,781.849243164062,565.547424316406,0,1,faces,female,0,1,faces,A,male,EX,I,94,E14,390.728515625
0,1,1,28047,3.388671875,0.181640625,6,0,3,22,10,727.459533691406,469.536407470703,0,1,objects,big,0,1,faces,A,male,EX,I,94,E14,390.728515625
0,1,0,28073,0.203125,0.15625,1,1,4,29,1,847.6220703125,268.797332763672,0,1,objects,small,0,1,faces,A,female,VS,F,95,E14,394.927734375
0,1,1,28074,0.404296875,0.1328125,2,1,12,75,2,1315.93249511719,349.031402587891,0,1,objects,small,0,1,faces,A,female,VS,F,95,E14,394.927734375
1,1,0,28076,0.7265625,0.12109375,3,1,13,76,4,1375.03002929688,454.954193115234,0,1,faces,female,0,1,faces,A,female,VS,F,95,E14,394.927734375
0,1,1,28077,0.896484375,0.1484375,4,1,10,65,5,1268.9580078125,271.002044677734,0,1,faces,female,0,1,faces,A,female,VS,F,95,E14,394.927734375
2,1,0,28080,1.314453125,0.21484375,5,0,13,76,8,1381.08068847656,459.858215332031,0,1,faces,female,0,1,faces,A,female,VS,F,95,E14,394.927734375
0,1,0,28081,1.572265625,0.208984375,6,0,14,78,9,1388.76513671875,648.781188964844,0,1,faces,female,0,1,faces,A,female,VS,F,95,E14,394.927734375
0,1,0,28083,2.2890625,0.255859375,7,0,9,61,11,1178.78100585938,722.88525390625,0,1,faces,female,0,1,faces,A,female,VS,F,95,E14,394.927734375
0,1,0,28086,3.103515625,0.205078125,8,0,5,32,14,824.329711914062,577.007751464844,0,1,faces,male,0,1,faces,A,female,VS,F,95,E14,394.927734375
0,1,0,28089,3.7109375,0.24609375,9,0,1,2,17,519.992553710938,285.739959716797,0,1,faces,female,0,1,faces,A,female,VS,F,95,E14,394.927734375
0,1,1,28124,1.275390625,0.189453125,1,1,9,57,8,1174.19592285156,367.06591796875,0,1,faces,female,1,1,faces,P,female,VS,I,96,E14,399.126953125
0,1,0,28126,1.6640625,0.216796875,2,1,7,48,10,1061.05639648438,343.680511474609,0,1,faces,female,1,1,faces,P,female,VS,I,96,E14,399.126953125
0,1,0,28127,1.947265625,0.205078125,3,1,2,11,11,646.114013671875,268.046051025391,0,1,faces,male,1,1,faces,P,female,VS,I,96,E14,399.126953125
0,0,1,28129,2.34375,0.21875,4,1,14,68,13,1263.58410644531,539.069274902344,1,0,NaN,NaN,1,1,faces,P,female,VS,I,96,E14,399.126953125
0,1,0,28149,0.205078125,0.173828125,1,1,12,68,1,1299.67834472656,548.227294921875,0,1,faces,female,1,1,faces,P,female,VS,F,97,E14,403.326171875
0,1,0,28150,0.421875,0.150390625,2,1,15,79,2,1320.87438964844,710.693481445312,0,1,objects,small,1,1,faces,P,female,VS,F,97,E14,403.326171875
0,1,1,28151,0.595703125,0.1640625,3,1,13,69,3,1294.35034179688,656.886840820312,1,0,NaN,NaN,1,1,faces,P,female,VS,F,97,E14,403.326171875
0,1,1,28164,0.51953125,0.255859375,1,1,14,79,2,1400.51220703125,766.592712402344,0,1,faces,female,1,0,faces,P,male,VS,F,98,E14,407.525390625
1,1,1,28166,0.904296875,0.140625,2,1,15,80,4,1393.27844238281,875.76513671875,1,0,NaN,NaN,1,0,faces,P,male,VS,F,98,E14,407.525390625
2,1,1,28169,1.275390625,0.1953125,3,1,15,80,7,1401.92028808594,864.194580078125,1,0,NaN,NaN,1,0,faces,P,male,VS,F,98,E14,407.525390625
0,1,0,28170,1.5625,0.197265625,4,1,10,71,8,1291.1083984375,862.43896484375,0,1,faces,female,1,0,faces,P,male,VS,F,98,E14,407.525390625
0,1,1,28171,1.822265625,0.1015625,5,0,7,43,9,972.966857910156,739.566040039062,0,1,faces,male,1,0,faces,P,male,VS,F,98,E14,407.525390625
0,1,0,28175,2.44921875,0.1484375,6,0,5,31,13,843.237060546875,469.285980224609,0,1,faces,male,1,0,faces,P,male,VS,F,98,E14,407.525390625
0,1,0,28176,2.638671875,0.169921875,7,0,1,6,14,560.401550292969,651.675842285156,0,1,objects,big,1,0,faces,P,male,VS,F,98,E14,407.525390625
0,1,1,28177,2.859375,0.12890625,8,0,8,46,15,1029.44128417969,144.306747436523,0,1,faces,male,1,0,faces,P,male,VS,F,98,E14,407.525390625
0,1,0,28179,3.18359375,0.169921875,9,0,2,10,17,632.629821777344,183.93571472168,0,1,faces,female,1,0,faces,P,male,VS,F,98,E14,407.525390625
0,1,0,28180,3.486328125,0.203125,10,0,11,73,18,1367.30358886719,155.637298583984,0,1,objects,big,1,0,faces,P,male,VS,F,98,E14,407.525390625
0,1,0,28181,3.75,0.119140625,11,0,12,76,19,1398.54370117188,483.475463867188,0,1,faces,male,1,0,faces,P,male,VS,F,98,E14,407.525390625
0,1,0,28182,3.896484375,0.126953125,12,0,13,77,20,1372.50024414062,498.2314453125,0,1,faces,female,1,0,faces,P,male,VS,F,98,E14,407.525390625
0,1,1,28205,0.314453125,0.171875,1,1,9,49,2,1076.84887695312,461.234771728516,0,1,faces,female,0,1,faces,A,female,EX,F,99,E14,411.724609375
0,1,1,28207,0.896484375,0.11328125,2,1,12,59,4,1171.57055664062,508.436157226562,0,1,faces,male,0,1,faces,A,female,EX,F,99,E14,411.724609375
0,1,1,28210,1.23046875,0.20703125,3,1,10,50,7,1102.17993164062,502.726898193359,0,1,faces,male,0,1,faces,A,female,EX,F,99,E14,411.724609375
0,1,0,28213,1.962890625,0.1171875,4,1,13,68,10,1307.93395996094,521.208801269531,0,1,faces,female,0,1,faces,A,female,EX,F,99,E14,411.724609375
0,1,0,28214,2.732421875,0.30078125,5,0,11,55,11,1159.6142578125,168.752716064453,0,1,faces,male,0,1,faces,A,female,EX,F,99,E14,411.724609375
0,1,1,28217,3.517578125,0.2265625,6,0,2,5,14,529.063110351562,582.303405761719,0,1,faces,male,0,1,faces,A,female,EX,F,99,E14,411.724609375
0,1,0,28247,0.21875,0.154296875,1,1,9,50,1,1110.12365722656,497.136260986328,0,1,objects,big,1,0,faces,P,male,VS,F,100,E14,415.923828125
0,1,1,28249,0.544921875,0.138671875,2,1,8,49,3,1086.03649902344,435.457641601562,0,1,faces,male,1,0,faces,P,male,VS,F,100,E14,415.923828125
1,1,0,28254,1.73046875,0.1171875,3,1,2,13,8,671.975158691406,445.094604492188,0,1,faces,male,1,0,faces,P,male,VS,F,100,E14,415.923828125
0,1,0,28255,1.890625,0.146484375,4,1,1,3,9,553.465393066406,377.039459228516,0,1,faces,female,1,0,faces,P,male,VS,F,100,E14,415.923828125
2,1,0,28256,2.0703125,0.234375,5,0,2,13,10,660.592834472656,462.480102539062,0,1,faces,male,1,0,faces,P,male,VS,F,100,E14,415.923828125
1,1,0,28257,2.376953125,0.16796875,6,0,11,56,11,1172.69348144531,232.197265625,1,0,NaN,NaN,1,0,faces,P,male,VS,F,100,E14,415.923828125
1,1,0,28258,2.578125,0.1953125,7,0,12,65,12,1280.93994140625,264.433471679688,0,1,faces,female,1,0,faces,P,male,VS,F,100,E14,415.923828125
2,1,1,28259,2.810546875,0.197265625,8,0,11,56,13,1197.91760253906,255.775344848633,1,0,NaN,NaN,1,0,faces,P,male,VS,F,100,E14,415.923828125
0,0,1,28261,3.36328125,0.162109375,9,0,7,47,15,1061.06860351562,238.260101318359,0,1,faces,female,1,0,faces,P,male,VS,F,100,E14,415.923828125
2,0,1,28263,3.67578125,0.138671875,10,0,12,65,17,1305.01599121094,267.996734619141,0,1,faces,female,1,0,faces,P,male,VS,F,100,E14,415.923828125
0,1,0,28292,0.478515625,0.140625,1,1,5,41,2,978.292724609375,498.775054931641,0,1,objects,big,0,1,faces,A,female,EX,I,101,E14,420.123046875
0,1,1,28295,0.8828125,0.103515625,2,1,2,14,5,636.582763671875,563.580444335938,0,1,faces,female,0,1,faces,A,female,EX,I,101,E14,420.123046875
0,1,1,28296,1.03125,0.12890625,3,1,4,38,6,921.037231445312,240.948532104492,0,1,faces,female,0,1,faces,A,female,EX,I,101,E14,420.123046875
0,1,1,28299,1.7109375,0.36328125,4,1,14,75,9,1396.27600097656,338.621551513672,0,1,faces,female,0,1,faces,A,female,EX,I,101,E14,420.123046875
0,1,0,28300,2.115234375,0.38671875,5,0,13,73,10,1402.54309082031,152.445556640625,0,1,faces,male,0,1,faces,A,female,EX,I,101,E14,420.123046875
0,1,0,28301,2.53515625,0.306640625,6,0,10,64,11,1274.72900390625,148.753402709961,0,1,faces,female,0,1,faces,A,female,EX,I,101,E14,420.123046875
0,1,1,28302,2.896484375,0.13671875,7,0,11,67,12,1308.6015625,446.580993652344,0,1,faces,male,0,1,faces,A,female,EX,I,101,E14,420.123046875
0,1,0,28304,3.353515625,0.2734375,8,0,12,68,14,1305.90686035156,562.49853515625,0,1,faces,male,0,1,faces,A,female,EX,I,101,E14,420.123046875
0,1,1,28305,3.654296875,0.185546875,9,0,6,49,15,1071.57849121094,447.818786621094,0,1,faces,male,0,1,faces,A,female,EX,I,101,E14,420.123046875
0,1,0,28328,0.22265625,0.1328125,1,1,12,59,1,1132.19409179688,551.079956054688,0,1,faces,female,1,1,faces,P,female,VS,I,102,E14,424.322265625
0,1,1,28332,1.28125,0.138671875,2,1,13,61,5,1120.48864746094,775.700988769531,0,1,objects,small,1,1,faces,P,female,VS,I,102,E14,424.322265625
0,1,1,28336,2.037109375,0.140625,3,1,3,11,9,647.619079589844,247.675369262695,0,1,faces,female,1,1,faces,P,female,VS,I,102,E14,424.322265625
0,1,0,28338,2.357421875,0.15625,4,1,2,10,11,635.738342285156,143.473388671875,0,1,faces,male,1,1,faces,P,female,VS,I,102,E14,424.322265625
0,1,1,28340,2.84765625,0.1015625,5,0,10,53,13,1109.58715820312,813.669006347656,1,0,NaN,NaN,1,1,faces,P,female,VS,I,102,E14,424.322265625
0,1,0,28347,3.75390625,0.13671875,6,0,8,44,20,1001.05792236328,793.592224121094,0,1,faces,male,1,1,faces,P,female,VS,I,102,E14,424.322265625
0,1,0,28372,0.53515625,0.15234375,1,1,5,22,3,761.992858886719,431.588134765625,0,1,objects,small,0,0,objects,P,big,VS,O,103,E14,428.521484375
1,1,0,28373,0.755859375,0.158203125,2,1,13,75,4,1365.7119140625,323.171630859375,0,1,objects,big,0,0,objects,P,big,VS,O,103,E14,428.521484375
0,1,0,28374,0.94921875,0.189453125,3,1,12,74,5,1397.51098632812,248.942611694336,0,1,objects,small,0,0,objects,P,big,VS,O,103,E14,428.521484375
1,1,0,28377,1.494140625,0.208984375,4,1,2,6,8,517.3134765625,672.657592773438,0,1,objects,big,0,0,objects,P,big,VS,O,103,E14,428.521484375
0,1,0,28378,1.7421875,0.125,5,0,1,4,9,541.548034667969,441.83251953125,0,1,faces,male,0,0,objects,P,big,VS,O,103,E14,428.521484375
0,1,0,28381,2.279296875,0.111328125,6,0,14,80,12,1313.02587890625,817.980529785156,0,1,faces,male,0,0,objects,P,big,VS,O,103,E14,428.521484375
0,1,0,28382,2.4453125,0.201171875,7,0,15,81,13,1362.79553222656,933.175048828125,0,1,faces,female,0,0,objects,P,big,VS,O,103,E14,428.521484375
