refix,pretarget,multifix,urevent,tonset,dur_added,rank,first_rank,stposrel,stposabs,n,x,y,istarget,isdistractor,distractor_cat,ditractor_atr,trial_targetseen,trial_correct,trial_cat,trial_resp,trial_atr,trial_type,trial_cattype,trial_number,trial_subject,trial_bgn_latency
0,1,1,26394,0.587890625,0.455078125,1,1,9,40,2,955.69677734375,483.036071777344,0,1,faces,male,1,0,faces,P,male,VS,I,1,J04,0.201171875
0,1,1,26399,2.34375,0.140625,2,1,6,34,7,846.112915039062,705.868713378906,1,0,NaN,NaN,1,0,faces,P,male,VS,I,1,J04,0.201171875
0,0,0,26402,3.857421875,0.1875,3,1,13,66,10,1292.14514160156,372.499969482422,0,1,objects,big,1,0,faces,P,male,VS,I,1,J04,0.201171875
0,1,0,26426,0.37109375,0.14453125,1,1,7,49,2,1016.88110351562,487.843109130859,0,1,objects,big,0,0,faces,A,female,EX,F,2,J04,4.400390625
0,1,0,26427,0.54296875,0.263671875,2,1,5,32,3,868.442138671875,549.689025878906,0,1,faces,male,0,0,faces,A,female,EX,F,2,J04,4.400390625
0,1,0,26429,1.07421875,0.45703125,3,1,4,30,5,888.219665527344,326.173278808594,0,1,faces,female,0,0,faces,A,female,EX,F,2,J04,4.400390625
0,1,0,26431,1.708984375,0.208984375,4,1,2,18,7,683.5234375,898.741821289062,0,1,faces,male,0,0,faces,A,female,EX,F,2,J04,4.400390625
0,1,0,26433,2.19140625,0.2890625,5,0,14,72,9,1282.48974609375,926.229736328125,0,1,faces,male,0,0,faces,A,female,EX,F,2,J04,4.400390625
0,1,0,26434,2.4921875,0.353515625,6,0,9,63,10,1201.32507324219,908.290588378906,0,1,faces,female,0,0,faces,A,female,EX,F,2,J04,4.400390625
0,1,0,26439,3.4921875,0.150390625,7,0,8,58,15,1165.15832519531,456.360504150391,0,1,faces,male,0,0,faces,A,female,EX,F,2,J04,4.400390625
0,1,0,26440,3.66015625,0.173828125,8,0,10,64,16,1306.80969238281,181.574111938477,0,1,faces,male,0,0,faces,A,female,EX,F,2,J04,4.400390625
0,1,0,26441,3.841796875,0.18359375,9,0,15,73,17,1349.58288574219,148.01220703125,0,1,faces,female,0,0,faces,A,female,EX,F,2,J04,4.400390625
0,1,0,26458,0.201171875,0.18359375,1,1,9,50,1,1014.27130126953,556.678039550781,0,1,objects,big,0,0,faces,P,female,VS,I,3,J04,8.599609375
0,1,1,26459,0.396484375,0.142578125,2,1,5,41,2,965.401977539062,573.7587890625,0,1,faces,male,0,0,faces,P,female,VS,I,3,J04,8.599609375
0,1,0,26461,0.8671875,0.416015625,3,1,2,23,4,767.528625488281,537.078918457031,0,1,faces,female,0,0,faces,P,female,VS,I,3,J04,8.599609375
0,1,0,26463,1.48828125,0.5703125,4,1,4,37,6,965.33837890625,173.722366333008,0,1,faces,female,0,0,faces,P,female,VS,I,3,J04,8.599609375
0,1,0,26464,2.080078125,0.60546875,5,0,10,55,7,1177.37756347656,160.814361572266,0,1,faces,female,0,0,faces,P,female,VS,I,3,J04,8.599609375
0,1,1,26465,2.705078125,0.326171875,6,0,11,58,8,1152.97583007812,477.038696289062,0,1,faces,male,0,0,faces,P,female,VS,I,3,J04,8.599609375
0,1,0,26469,3.916015625,0.142578125,7,0,6,43,12,952.214477539062,751.118713378906,0,1,faces,female,0,0,faces,P,female,VS,I,3,J04,8.599609375
0,1,0,26494,0.357421875,0.291015625,1,1,1,5,3,596.079895019531,536.891906738281,0,1,objects,small,0,0,faces,A,male,EX,I,4,J04,12.798828125
0,1,1,26495,0.658203125,0.205078125,2,1,2,14,4,637.433654785156,503.87939453125,0,1,faces,male,0,0,faces,A,male,EX,I,4,J04,12.798828125
0,1,1,26497,1.267578125,0.16015625,3,1,5,35,6,849.030700683594,815.169860839844,0,1,objects,big,0,0,faces,A,male,EX,I,4,J04,12.798828125
0,1,0,26499,1.88671875,0.13671875,4,1,13,71,8,1234.28076171875,792.514770507812,0,1,faces,male,0,0,faces,A,male,EX,I,4,J04,12.798828125
0,1,0,26502,2.42578125,0.244140625,5,0,8,53,11,1100.10876464844,825.875,0,1,faces,female,0,0,faces,A,male,EX,I,4,J04,12.798828125
0,1,0,26504,3.021484375,0.419921875,6,0,12,67,13,1226.37524414062,408.616943359375,0,1,faces,female,0,0,faces,A,male,EX,I,4,J04,12.798828125
0,1,0,26506,3.77734375,0.189453125,7,0,14,75,15,1309.77990722656,332.788238525391,0,1,objects,big,0,0,faces,A,male,EX,I,4,J04,12.798828125
1,1,0,26522,0.275390625,0.224609375,1,1,8,40,2,916.710998535156,460.722137451172,0,1,faces,male,0,0,faces,A,male,EX,F,5,J04,16.998046875
1,1,0,26523,0.5234375,0.205078125,2,1,2,13,3,684.745788574219,449.719116210938,0,1,faces,male,0,0,faces,A,male,EX,F,5,J04,16.998046875
0,1,0,26524,0.806640625,0.376953125,3,1,1,2,4,558.730712890625,238.536026000977,0,1,objects,big,0,0,faces,A,male,EX,F,5,J04,16.998046875
0,1,0,26525,1.216796875,0.37890625,4,1,4,19,5,750.251525878906,146.439468383789,0,1,faces,male,0,0,faces,A,male,EX,F,5,J04,16.998046875
0,1,0,26526,1.638671875,0.46484375,5,0,12,64,6,1265.39013671875,147.917144775391,0,1,faces,female,0,0,faces,A,male,EX,F,5,J04,16.998046875
0,1,0,26527,2.150390625,0.185546875,6,0,6,30,7,876.599975585938,372.863494873047,0,1,objects,big,0,0,faces,A,male,EX,F,5,J04,16.998046875
2,1,0,26528,2.3515625,0.271484375,7,0,8,40,8,969.906921386719,474.054626464844,0,1,faces,male,0,0,faces,A,male,EX,F,5,J04,16.998046875
2,1,0,26529,2.654296875,0.390625,8,0,2,13,9,670.545471191406,464.878204345703,0,1,faces,male,0,0,faces,A,male,EX,F,5,J04,16.998046875
0,1,1,26530,3.060546875,0.17578125,9,0,7,32,10,821.077575683594,543.599243164062,0,1,faces,female,0,0,faces,A,male,EX,F,5,J04,16.998046875
0,1,0,26534,3.91015625,0.369140625,10,0,15,78,14,1384.74963378906,615.592468261719,0,1,faces,female,0,0,faces,A,male,EX,F,5,J04,16.998046875
0,1,0,26547,0.193359375,0.185546875,1,1,10,41,1,917.646606445312,495.694732666016,0,1,objects,small,0,1,faces,A,female,EX,I,6,J04,21.197265625
0,1,0,26549,0.966796875,0.349609375,2,1,3,13,3,644.395690917969,424.436370849609,0,1,faces,female,0,1,faces,A,female,EX,I,6,J04,21.197265625
0,1,0,26550,1.328125,0.28125,3,1,2,12,4,660.0380859375,342.228302001953,0,1,faces,female,0,1,faces,A,female,EX,I,6,J04,21.197265625
0,1,0,26552,1.818359375,0.337890625,4,1,11,52,6,1062.7666015625,770.521118164062,0,1,faces,female,0,1,faces,A,female,EX,I,6,J04,21.197265625
0,1,0,26554,2.33203125,0.48046875,5,0,9,36,8,852.362121582031,917.263244628906,0,1,objects,big,0,1,faces,A,female,EX,I,6,J04,21.197265625
0,1,0,26555,2.826171875,0.5546875,6,0,7,26,9,745.700256347656,797.430908203125,0,1,faces,male,0,1,faces,A,female,EX,I,6,J04,21.197265625
0,1,0,26556,3.42578125,0.140625,7,0,14,69,10,1288.99365234375,687.954162597656,0,1,faces,male,0,1,faces,A,female,EX,I,6,J04,21.197265625
0,1,0,26566,0.341796875,0.15625,1,1,7,32,2,861.727844238281,503.806976318359,0,1,objects,big,1,0,faces,P,male,VS,F,7,J04,25.396484375
0,1,0,26567,0.517578125,0.240234375,2,1,10,51,3,1053.78137207031,616.76708984375,0,1,faces,female,1,0,faces,P,male,VS,F,7,J04,25.396484375
0,1,0,26570,1.169921875,0.23046875,3,1,4,21,6,737.460327148438,345.574920654297,0,1,faces,female,1,0,faces,P,male,VS,F,7,J04,25.396484375
1,0,0,26571,1.439453125,0.220703125,4,1,9,46,7,1084.0146484375,152.434509277344,1,0,NaN,NaN,1,0,faces,P,male,VS,F,7,J04,25.396484375
0,0,0,26572,1.697265625,0.1875,5,0,14,73,8,1362.58972167969,148.002487182617,0,1,faces,male,1,0,faces,P,male,VS,F,7,J04,25.396484375
2,0,0,26573,1.908203125,2.537109375,6,0,9,46,9,1059.68920898438,153.834182739258,1,0,NaN,NaN,1,0,faces,P,male,VS,F,7,J04,25.396484375
0,1,0,26588,0.189453125,0.580078125,1,1,11,49,1,1043.53393554688,424.198425292969,0,1,faces,female,0,0,objects,A,big,EX,O,8,J04,29.595703125
0,1,0,26589,0.81640625,0.41796875,2,1,2,12,2,657.004089355469,352.104858398438,0,1,faces,female,0,0,objects,A,big,EX,O,8,J04,29.595703125
0,1,0,26590,1.248046875,0.408203125,3,1,5,21,3,749.214721679688,325.431488037109,0,1,faces,male,0,0,objects,A,big,EX,O,8,J04,29.595703125
0,1,0,26591,1.67578125,0.232421875,4,1,4,15,4,646.037414550781,624.054748535156,0,1,objects,small,0,0,objects,A,big,EX,O,8,J04,29.595703125
0,1,0,26592,1.916015625,0.279296875,5,0,1,6,5,578.772583007812,654.302673339844,0,1,faces,female,0,0,objects,A,big,EX,O,8,J04,29.595703125
0,1,0,26593,2.228515625,0.255859375,6,0,6,27,6,761.936767578125,934.117614746094,0,1,objects,big,0,0,objects,A,big,EX,O,8,J04,29.595703125
1,1,0,26596,2.923828125,0.48046875,7,0,15,68,9,1263.53894042969,523.013854980469,0,1,faces,male,0,0,objects,A,big,EX,O,8,J04,29.595703125
0,1,0,26597,3.421875,0.1953125,8,0,12,52,10,1021.18841552734,690.432800292969,0,1,objects,big,0,0,objects,A,big,EX,O,8,J04,29.595703125
0,1,0,26598,3.630859375,0.205078125,9,0,10,42,11,950.466491699219,628.008117675781,0,1,faces,male,0,0,objects,A,big,EX,O,8,J04,29.595703125
2,1,0,26599,3.87890625,0.3828125,10,0,15,68,12,1266.28076171875,543.803466796875,0,1,faces,male,0,0,objects,A,big,EX,O,8,J04,29.595703125
0,1,0,26605,0.365234375,0.15234375,1,1,9,38,2,957.570739746094,217.631134033203,0,1,objects,small,1,1,faces,P,female,VS,I,9,J04,33.794921875
0,1,0,26606,0.5390625,0.154296875,2,1,5,22,3,750.587768554688,402.240081787109,0,1,faces,male,1,1,faces,P,female,VS,I,9,J04,33.794921875
0,1,1,26607,0.72265625,0.166015625,3,1,2,10,4,631.948791503906,157.901214599609,0,1,objects,small,1,1,faces,P,female,VS,I,9,J04,33.794921875
0,1,0,26609,1.09765625,0.150390625,4,1,13,66,6,1250.33618164062,322.36865234375,0,1,objects,small,1,1,faces,P,female,VS,I,9,J04,33.794921875
1,1,0,26611,1.435546875,0.154296875,5,0,1,8,8,593.251831054688,792.654968261719,0,1,faces,female,1,1,faces,P,female,VS,I,9,J04,33.794921875
0,1,1,26612,1.625,0.16015625,6,0,7,34,9,907.591674804688,715.251647949219,0,1,faces,female,1,1,faces,P,female,VS,I,9,J04,33.794921875
2,1,1,26614,1.9609375,0.154296875,7,0,1,8,11,537.020141601562,823.482788085938,0,1,faces,female,1,1,faces,P,female,VS,I,9,J04,33.794921875
1,0,0,26617,2.544921875,0.453125,8,0,12,52,14,1056.38037109375,701.017639160156,1,0,NaN,NaN,1,1,faces,P,female,VS,I,9,J04,33.794921875
0,0,0,26619,3.19921875,0.236328125,9,0,15,81,16,1356.92370605469,890.34375,0,1,faces,male,1,1,faces,P,female,VS,I,9,J04,33.794921875
2,0,0,26620,3.46875,0.87890625,10,0,12,52,17,1062.181640625,709.155029296875,1,0,NaN,NaN,1,1,faces,P,female,VS,I,9,J04,33.794921875
1,0,0,26634,0.38671875,0.61328125,1,1,8,39,2,964.676330566406,293.460845947266,1,0,NaN,NaN,1,1,objects,P,small,VS,O,10,J04,37.994140625
0,0,0,26635,1.013671875,0.142578125,2,1,9,40,3,917.081848144531,447.892333984375,0,1,faces,female,1,1,objects,P,small,VS,O,10,J04,37.994140625
0,0,0,26636,1.173828125,0.25390625,3,1,5,24,4,763.243469238281,625.698486328125,0,1,objects,big,1,1,objects,P,small,VS,O,10,J04,37.994140625
0,0,0,26637,1.443359375,0.193359375,4,1,7,34,5,902.4013671875,721.776062011719,0,1,faces,female,1,1,objects,P,small,VS,O,10,J04,37.994140625
0,0,0,26638,1.654296875,0.208984375,5,0,12,54,6,1093.09265136719,892.525329589844,0,1,faces,male,1,1,objects,P,small,VS,O,10,J04,37.994140625
0,0,0,26639,1.873046875,0.10546875,6,0,11,53,7,1062.17492675781,884.432556152344,0,1,faces,female,1,1,objects,P,small,VS,O,10,J04,37.994140625
2,0,1,26640,2.009765625,0.19140625,7,0,8,39,8,997.63232421875,361.389862060547,1,0,NaN,NaN,1,1,objects,P,small,VS,O,10,J04,37.994140625
0,0,1,26642,2.57421875,0.17578125,8,0,1,13,10,695.906188964844,405.678283691406,0,1,faces,female,1,1,objects,P,small,VS,O,10,J04,37.994140625
0,0,0,26644,2.955078125,0.21875,9,0,4,21,12,782.219055175781,320.604766845703,0,1,faces,male,1,1,objects,P,small,VS,O,10,J04,37.994140625
3,0,0,26645,3.19140625,1.5390625,10,0,8,39,13,949.821594238281,353.351470947266,1,0,NaN,NaN,1,1,objects,P,small,VS,O,10,J04,37.994140625
1,0,0,26653,0.40625,2.021484375,1,1,4,13,1,668.807861328125,431.4248046875,1,0,NaN,NaN,1,1,objects,P,small,VS,O,11,J04,42.193359375
0,0,0,26655,2.650390625,0.29296875,2,1,9,44,3,964.576538085938,808.90576171875,0,1,faces,male,1,1,objects,P,small,VS,O,11,J04,42.193359375
2,0,0,26656,2.982421875,1.56640625,3,1,4,13,4,656.60986328125,453.421783447266,1,0,NaN,NaN,1,1,objects,P,small,VS,O,11,J04,42.193359375
0,1,1,26669,0.646484375,0.216796875,1,1,2,3,3,525.171691894531,345.902801513672,0,1,faces,male,0,1,faces,A,female,VS,F,12,J04,46.392578125
0,1,0,26671,1,0.205078125,2,1,1,2,5,540.503662109375,237.92350769043,0,1,faces,male,0,1,faces,A,female,VS,F,12,J04,46.392578125
1,1,0,26672,1.25,0.162109375,3,1,9,51,6,1033.08471679688,620.148132324219,0,1,faces,male,0,1,faces,A,female,VS,F,12,J04,46.392578125
2,1,1,26674,1.591796875,0.173828125,4,1,9,51,8,1093.53405761719,601.216918945312,0,1,faces,male,0,1,faces,A,female,VS,F,12,J04,46.392578125
0,1,1,26676,1.9453125,0.28125,5,0,4,8,10,550.314208984375,822.862243652344,0,1,faces,female,0,1,faces,A,female,VS,F,12,J04,46.392578125
0,1,0,26678,2.3203125,0.33984375,6,0,5,9,12,550.272155761719,978.783020019531,0,1,faces,female,0,1,faces,A,female,VS,F,12,J04,46.392578125
0,1,1,26683,3.31640625,0.1640625,7,0,11,58,17,1182.78247070312,411.052124023438,0,1,faces,male,0,1,faces,A,female,VS,F,12,J04,46.392578125
0,1,0,26685,3.845703125,0.533203125,8,0,7,19,19,738.485412597656,181.653564453125,0,1,objects,big,0,1,faces,A,female,VS,F,12,J04,46.392578125
0,1,0,26694,0.189453125,0.353515625,1,1,6,31,1,883.756042480469,445.606964111328,0,1,faces,male,0,0,objects,A,small,EX,O,13,J04,50.591796875
1,1,0,26695,0.5625,0.384765625,2,1,3,15,2,688.194946289062,623.537109375,0,1,objects,big,0,0,objects,A,small,EX,O,13,J04,50.591796875
0,1,0,26696,0.98046875,0.5703125,3,1,1,2,3,556.700012207031,273.751770019531,0,1,objects,small,0,0,objects,A,small,EX,O,13,J04,50.591796875
2,1,0,26697,1.578125,0.46484375,4,1,3,15,4,653.3955078125,659.242370605469,0,1,objects,big,0,0,objects,A,small,EX,O,13,J04,50.591796875
0,1,0,26698,2.05859375,0.41015625,5,0,4,17,5,664.346252441406,850.203430175781,0,1,objects,big,0,0,objects,A,small,EX,O,13,J04,50.591796875
0,1,1,26702,3.71484375,0.177734375,6,0,8,50,9,1098.82775878906,494.398193359375,0,1,faces,female,0,0,objects,A,small,EX,O,13,J04,50.591796875
0,1,1,26720,1.076171875,0.166015625,1,1,3,8,5,525.054870605469,813.081237792969,0,1,faces,female,0,1,faces,A,male,VS,F,14,J04,54.791015625
0,1,1,26722,1.482421875,0.119140625,2,1,14,71,7,1215.3701171875,804.579650878906,0,1,objects,big,0,1,faces,A,male,VS,F,14,J04,54.791015625
0,1,0,26724,1.748046875,0.166015625,3,1,11,53,9,1044.97192382812,810.520141601562,0,1,faces,male,0,1,faces,A,male,VS,F,14,J04,54.791015625
1,1,0,26726,2.150390625,0.1875,4,1,4,10,11,667.408203125,168.522476196289,0,1,faces,male,0,1,faces,A,male,VS,F,14,J04,54.791015625
0,1,1,26727,2.3515625,0.15234375,5,0,5,19,12,732.668823242188,160.99755859375,0,1,faces,female,0,1,faces,A,male,VS,F,14,J04,54.791015625
0,1,0,26729,2.8125,0.208984375,6,0,2,3,14,597.413452148438,358.668579101562,0,1,faces,male,0,1,faces,A,male,VS,F,14,J04,54.791015625
2,1,0,26730,3.0390625,0.365234375,7,0,4,10,15,680.229797363281,148.494857788086,0,1,faces,male,0,1,faces,A,male,VS,F,14,J04,54.791015625
0,1,0,26731,3.47265625,0.154296875,8,0,15,75,16,1403.18969726562,300.344299316406,0,1,faces,male,0,1,faces,A,male,VS,F,14,J04,54.791015625
0,1,0,26740,0.474609375,0.17578125,1,1,6,14,3,638.542907714844,558.529968261719,0,1,faces,male,1,1,faces,P,female,VS,F,15,J04,58.990234375
1,1,0,26741,0.666015625,0.177734375,2,1,2,4,4,528.41748046875,429.580688476562,1,0,NaN,NaN,1,1,faces,P,female,VS,F,15,J04,58.990234375
0,1,0,26742,0.85546875,0.134765625,3,1,1,3,5,554.853515625,331.941589355469,0,1,faces,female,1,1,faces,P,female,VS,F,15,J04,58.990234375
2,0,0,26743,0.998046875,2.01171875,4,1,2,4,6,561.517578125,394.517730712891,1,0,NaN,NaN,1,1,faces,P,female,VS,F,15,J04,58.990234375
0,0,0,26744,3.025390625,0.322265625,5,0,5,11,7,655.40234375,239.119979858398,0,1,faces,female,1,1,faces,P,female,VS,F,15,J04,58.990234375
0,0,0,26746,3.58203125,0.140625,6,0,13,64,9,1237.72265625,96.1379241943359,0,1,faces,male,1,1,faces,P,female,VS,F,15,J04,58.990234375
1,1,0,26757,0.18359375,0.158203125,1,1,3,23,1,764.207641601562,534.116638183594,0,1,objects,small,1,1,objects,P,small,VS,O,16,J04,63.189453125
0,1,0,26758,0.353515625,0.25,2,1,2,22,2,712.396484375,436.486999511719,0,1,objects,big,1,1,objects,P,small,VS,O,16,J04,63.189453125
2,1,0,26759,0.6171875,0.169921875,3,1,3,23,3,764.224426269531,515.610168457031,0,1,objects,small,1,1,objects,P,small,VS,O,16,J04,63.189453125
0,1,0,26761,1.00390625,0.232421875,4,1,13,56,5,1160.42077636719,237.20393371582,0,1,faces,female,1,1,objects,P,small,VS,O,16,J04,63.189453125
0,1,0,26763,1.4453125,0.14453125,5,0,7,43,7,935.016235351562,787.525939941406,0,1,faces,male,1,1,objects,P,small,VS,O,16,J04,63.189453125
1,1,1,26764,1.60546875,0.15234375,6,0,6,35,8,833.117858886719,798.416687011719,1,0,NaN,NaN,1,1,objects,P,small,VS,O,16,J04,63.189453125
0,0,0,26766,2.3046875,0.6484375,7,0,5,26,10,777.360778808594,816.550170898438,0,1,objects,small,1,1,objects,P,small,VS,O,16,J04,63.189453125
2,0,0,26767,2.96875,1.427734375,8,0,6,35,11,862.964965820312,818.898864746094,1,0,NaN,NaN,1,1,objects,P,small,VS,O,16,J04,63.189453125
1,1,1,26775,0.21875,0.1640625,1,1,7,32,1,893.614562988281,498.741760253906,0,1,faces,male,0,1,faces,A,male,VS,I,17,J04,67.388671875
0,1,0,26777,0.640625,0.447265625,2,1,4,13,3,648.007385253906,436.418609619141,0,1,faces,female,0,1,faces,A,male,VS,I,17,J04,67.388671875
0,1,0,26779,1.326171875,0.248046875,3,1,5,29,5,845.794250488281,221.405822753906,0,1,faces,male,0,1,faces,A,male,VS,I,17,J04,67.388671875
0,1,0,26780,1.595703125,0.203125,4,1,9,37,6,955.929260253906,131.391326904297,0,1,faces,male,0,1,faces,A,male,VS,I,17,J04,67.388671875
1,1,0,26781,1.82421875,0.171875,5,0,12,65,7,1269.72143554688,255.826721191406,0,1,faces,female,0,1,faces,A,male,VS,I,17,J04,67.388671875
0,1,0,26782,2.0078125,0.37890625,6,0,13,66,8,1248.12939453125,313.242279052734,0,1,faces,female,0,1,faces,A,male,VS,I,17,J04,67.388671875
2,1,0,26783,2.39453125,0.2109375,7,0,12,65,9,1269.93835449219,202.241348266602,0,1,faces,female,0,1,faces,A,male,VS,I,17,J04,67.388671875
0,1,1,26785,2.76953125,0.1640625,8,0,10,61,11,1175.66040039062,783.809692382812,0,1,objects,small,0,1,faces,A,male,VS,I,17,J04,67.388671875
2,1,1,26788,3.279296875,0.53515625,9,0,7,32,14,856.224914550781,570.593688964844,0,1,faces,male,0,1,faces,A,male,VS,I,17,J04,67.388671875
0,1,0,26795,0.30078125,0.18359375,1,1,4,21,2,732.450561523438,308.693603515625,0,1,objects,small,1,1,objects,P,small,VS,O,18,J04,71.587890625
0,1,0,26796,0.5,0.22265625,2,1,1,2,3,585.359497070312,260.051544189453,0,1,objects,small,1,1,objects,P,small,VS,O,18,J04,71.587890625
0,1,0,26797,0.763671875,0.291015625,3,1,3,9,4,536.171875,966.695556640625,0,1,faces,female,1,1,objects,P,small,VS,O,18,J04,71.587890625
0,1,0,26798,1.07421875,0.138671875,4,1,5,26,5,739.838806152344,832.458557128906,0,1,objects,big,1,1,objects,P,small,VS,O,18,J04,71.587890625
0,0,0,26801,1.6640625,1.326171875,5,0,15,77,8,1365.29907226562,526.769165039062,1,0,NaN,NaN,1,1,objects,P,small,VS,O,18,J04,71.587890625
0,0,1,26802,3.009765625,0.177734375,6,0,10,56,9,1186.72082519531,210.154891967773,0,1,faces,male,1,1,objects,P,small,VS,O,18,J04,71.587890625
0,0,0,26804,3.595703125,0.283203125,7,0,13,67,11,1267.08959960938,389.94873046875,0,1,faces,male,1,1,objects,P,small,VS,O,18,J04,71.587890625
0,1,0,26814,0.337890625,0.357421875,1,1,2,13,2,681.389709472656,401.016052246094,0,1,faces,female,0,1,faces,P,male,VS,F,19,J04,75.787109375
0,1,0,26815,0.712890625,0.296875,2,1,1,1,3,581.6689453125,132.335205078125,0,1,objects,big,0,1,faces,P,male,VS,F,19,J04,75.787109375
0,1,0,26820,1.830078125,2.431640625,3,1,5,35,8,876.13232421875,887.762329101562,0,1,faces,male,0,1,faces,P,male,VS,F,19,J04,75.787109375
1,1,0,26829,0.39453125,0.1640625,1,1,4,24,2,755.127258300781,633.52880859375,0,1,faces,female,0,1,objects,A,big,VS,O,20,J04,79.986328125
0,1,0,26830,0.59375,0.279296875,2,1,6,29,3,877.452087402344,273.739776611328,0,1,objects,small,0,1,objects,A,big,VS,O,20,J04,79.986328125
1,1,0,26831,0.9140625,0.216796875,3,1,13,64,4,1237.51354980469,129.933609008789,0,1,objects,big,0,1,objects,A,big,VS,O,20,J04,79.986328125
1,1,0,26832,1.14453125,0.33203125,4,1,10,55,5,1155.88415527344,118.721138000488,0,1,objects,small,0,1,objects,A,big,VS,O,20,J04,79.986328125
2,1,0,26833,1.4921875,0.2421875,5,0,13,64,6,1258.65625,115.167823791504,0,1,objects,big,0,1,objects,A,big,VS,O,20,J04,79.986328125
2,1,0,26837,2.185546875,0.453125,6,0,10,55,10,1156.53405761719,126.625022888184,0,1,objects,small,0,1,objects,A,big,VS,O,20,J04,79.986328125
2,1,0,26840,2.982421875,0.1796875,7,0,4,24,13,758.89111328125,670.968566894531,0,1,faces,female,0,1,objects,A,big,VS,O,20,J04,79.986328125
0,1,0,26843,3.533203125,0.201171875,8,0,2,14,16,631.661437988281,540.40087890625,0,1,objects,big,0,1,objects,A,big,VS,O,20,J04,79.986328125
0,1,0,26848,0.66796875,0.41796875,1,1,6,46,1,1052.0712890625,106.253227233887,0,1,objects,big,0,0,faces,P,male,VS,F,21,J04,84.185546875
0,1,0,26849,1.099609375,0.158203125,2,1,4,37,2,969.2177734375,110.189384460449,0,1,faces,male,0,0,faces,P,male,VS,F,21,J04,84.185546875
0,1,0,26850,1.275390625,0.216796875,3,1,3,19,3,757.139343261719,96.8590927124023,0,1,faces,male,0,0,faces,P,male,VS,F,21,J04,84.185546875
0,1,0,26852,1.685546875,0.19140625,4,1,1,16,5,656.984558105469,701.542541503906,0,1,objects,big,0,0,faces,P,male,VS,F,21,J04,84.185546875
0,1,0,26853,1.904296875,0.14453125,5,0,2,18,6,640.868835449219,895.851745605469,0,1,faces,female,0,0,faces,P,male,VS,F,21,J04,84.185546875
0,1,0,26855,2.50390625,0.26953125,6,0,12,59,8,1156.32763671875,515.733215332031,0,1,faces,female,0,0,faces,P,male,VS,F,21,J04,84.185546875
0,1,0,26856,2.796875,0.201171875,7,0,14,72,9,1280.03430175781,931.357299804688,0,1,objects,small,0,0,faces,P,male,VS,F,21,J04,84.185546875
1,1,0,26872,0.21484375,0.50390625,1,1,7,41,1,973.945068359375,516.550048828125,0,1,faces,female,0,1,faces,A,female,VS,I,22,J04,88.384765625
0,1,0,26877,2.296875,0.13671875,2,1,15,74,6,1369.95642089844,227.774429321289,0,1,faces,male,0,1,faces,A,female,VS,I,22,J04,88.384765625
0,1,0,26878,2.470703125,0.224609375,3,1,5,28,7,872.974975585938,138.819259643555,0,1,faces,male,0,1,faces,A,female,VS,I,22,J04,88.384765625
0,1,0,26879,2.7109375,0.28125,4,1,3,19,8,765.296142578125,135.416290283203,0,1,faces,female,0,1,faces,A,female,VS,I,22,J04,88.384765625
0,1,0,26880,3.01953125,0.376953125,5,0,2,14,9,648.787902832031,558.400695800781,0,1,faces,male,0,1,faces,A,female,VS,I,22,J04,88.384765625
2,1,0,26881,3.41796875,0.443359375,6,0,7,41,10,960.906677246094,504.836639404297,0,1,faces,female,0,1,faces,A,female,VS,I,22,J04,88.384765625
0,1,0,26882,3.9140625,0.244140625,7,0,1,9,11,590.392456054688,919.463134765625,0,1,objects,big,0,1,faces,A,female,VS,I,22,J04,88.384765625
0,1,0,26890,0.193359375,0.228515625,1,1,3,22,1,804.268920898438,458.407012939453,0,1,faces,male,0,1,objects,A,small,VS,O,23,J04,92.583984375
1,1,0,26891,0.4375,0.181640625,2,1,5,32,2,842.767639160156,590.366455078125,0,1,objects,big,0,1,objects,A,small,VS,O,23,J04,92.583984375
1,1,0,26892,0.640625,0.142578125,3,1,2,17,3,631.627136230469,823.43896484375,0,1,objects,small,0,1,objects,A,small,VS,O,23,J04,92.583984375
1,1,0,26893,1.4921875,0.197265625,4,1,11,55,4,1165.16540527344,153.379501342773,0,1,faces,female,0,1,objects,A,small,VS,O,23,J04,92.583984375
1,1,0,26894,1.701171875,0.212890625,5,0,9,46,5,1072.70373535156,158.003005981445,0,1,faces,female,0,1,objects,A,small,VS,O,23,J04,92.583984375
0,1,0,26895,1.9296875,0.2578125,6,0,10,48,6,1070.62573242188,322.754852294922,0,1,faces,male,0,1,objects,A,small,VS,O,23,J04,92.583984375
0,1,0,26896,2.228515625,0.23046875,7,0,14,75,7,1394.75085449219,319.315734863281,0,1,faces,female,0,1,objects,A,small,VS,O,23,J04,92.583984375
2,1,0,26897,2.48828125,0.169921875,8,0,11,55,8,1134.24340820312,95.3951797485352,0,1,faces,female,0,1,objects,A,small,VS,O,23,J04,92.583984375
2,1,0,26898,2.669921875,0.140625,9,0,9,46,9,1062.38305664062,123.70157623291,0,1,faces,female,0,1,objects,A,small,VS,O,23,J04,92.583984375
2,1,1,26899,2.869140625,0.3359375,10,0,2,17,10,629.131286621094,888.871154785156,0,1,objects,small,0,1,objects,A,small,VS,O,23,J04,92.583984375
2,1,0,26902,3.6328125,0.263671875,11,0,5,32,13,859.0107421875,537.337036132812,0,1,objects,big,0,1,objects,A,small,VS,O,23,J04,92.583984375
0,1,0,26908,0.19140625,0.22265625,1,1,4,29,1,880.541442871094,282.840057373047,0,1,faces,male,1,1,faces,P,male,VS,I,24,J04,96.783203125
0,1,0,26909,0.44921875,0.228515625,2,1,1,11,2,687.328918457031,232.669799804688,0,1,faces,female,1,1,faces,P,male,VS,I,24,J04,96.783203125
0,1,0,26911,0.875,0.166015625,3,1,9,47,4,1073.29626464844,205.828094482422,0,1,faces,female,1,1,faces,P,male,VS,I,24,J04,96.783203125
0,1,0,26912,1.072265625,0.2890625,4,1,2,19,5,750.45166015625,124.297798156738,0,1,faces,female,1,1,faces,P,male,VS,I,24,J04,96.783203125
0,1,0,26914,1.546875,0.349609375,5,0,3,25,7,762.483520507812,703.116882324219,0,1,faces,male,1,1,faces,P,male,VS,I,24,J04,96.783203125
0,1,0,26916,2.287109375,0.19140625,6,0,6,41,9,966.028991699219,587.290283203125,1,0,NaN,NaN,1,1,faces,P,male,VS,I,24,J04,96.783203125
0,1,1,26920,0.50390625,0.40234375,1,1,6,23,3,756.069091796875,518.110900878906,0,1,faces,female,0,1,faces,A,male,EX,I,25,J04,100.982421875
0,1,0,26922,0.998046875,0.365234375,2,1,1,6,5,556.401916503906,666.361938476562,0,1,faces,male,0,1,faces,A,male,EX,I,25,J04,100.982421875
0,1,0,26923,1.40234375,0.146484375,3,1,7,39,6,950.006896972656,331.984497070312,0,1,faces,male,0,1,faces,A,male,EX,I,25,J04,100.982421875
0,1,0,26924,1.56640625,2.771484375,4,1,4,20,7,750.91015625,268.190277099609,0,1,objects,big,0,1,faces,A,male,EX,I,25,J04,100.982421875
0,1,1,26936,0.994140625,0.13671875,1,1,6,50,3,1039.51611328125,569.357788085938,0,1,faces,male,1,1,objects,P,small,VS,O,26,J04,105.181640625
0,1,0,26938,1.388671875,0.16015625,2,1,10,71,5,1241.17016601562,874.418090820312,0,1,faces,male,1,1,objects,P,small,VS,O,26,J04,105.181640625
0,1,0,26939,1.560546875,0.14453125,3,1,14,80,6,1316.9677734375,876.3740234375,0,1,faces,female,1,1,objects,P,small,VS,O,26,J04,105.181640625
0,1,0,26940,1.712890625,0.1328125,4,1,15,81,7,1318.10485839844,948.502502441406,1,0,NaN,NaN,1,1,objects,P,small,VS,O,26,J04,105.181640625
0,1,0,26950,0.177734375,0.232421875,1,1,7,33,1,811.054992675781,642.229309082031,0,1,faces,female,1,1,faces,P,male,VS,I,27,J04,109.380859375
0,0,0,26951,0.421875,0.2578125,2,1,6,31,2,821.42529296875,443.620483398438,1,0,NaN,NaN,1,1,faces,P,male,VS,I,27,J04,109.380859375
0,0,0,26952,0.7109375,0.24609375,3,1,2,5,3,543.611694335938,554.762512207031,0,1,faces,male,1,1,faces,P,male,VS,I,27,J04,109.380859375
0,0,0,26953,0.982421875,0.27734375,4,1,1,2,4,563.3056640625,273.920776367188,0,1,faces,male,1,1,faces,P,male,VS,I,27,J04,109.380859375
0,0,0,26957,2.337890625,0.142578125,5,0,13,68,8,1297.53552246094,526.351318359375,0,1,faces,female,1,1,faces,P,male,VS,I,27,J04,109.380859375
0,0,0,26959,2.708984375,0.19140625,6,0,12,61,10,1168.77770996094,786.923645019531,0,1,objects,big,1,1,faces,P,male,VS,I,27,J04,109.380859375
0,0,0,26961,3.044921875,0.201171875,7,0,8,35,12,895.661865234375,873.440368652344,0,1,objects,big,1,1,faces,P,male,VS,I,27,J04,109.380859375
0,0,0,26962,3.259765625,0.234375,8,0,11,44,13,956.915649414062,862.217468261719,0,1,faces,female,1,1,faces,P,male,VS,I,27,J04,109.380859375
0,1,0,26977,0.51953125,0.1484375,1,1,4,22,3,721.203918457031,461.794555664062,0,1,faces,male,0,1,faces,P,male,VS,I,28,J04,113.580078125
0,1,0,26978,0.6953125,0.18359375,2,1,2,14,4,655.409423828125,539.429077148438,0,1,faces,female,0,1,faces,P,male,VS,I,28,J04,113.580078125
0,1,0,26980,1.109375,0.224609375,3,1,11,64,6,1263.38586425781,140.507507324219,0,1,faces,female,0,1,faces,P,male,VS,I,28,J04,113.580078125
0,1,0,26981,1.34765625,0.146484375,4,1,13,73,7,1354.57629394531,108.928176879883,0,1,faces,female,0,1,faces,P,male,VS,I,28,J04,113.580078125
1,1,0,26998,0.208984375,0.169921875,1,1,8,35,2,830.642944335938,860.664978027344,0,1,faces,male,0,1,objects,P,small,VS,O,29,J04,117.779296875
0,1,0,26999,0.39453125,0.24609375,2,1,6,27,3,719.2373046875,944.787292480469,0,1,faces,male,0,1,objects,P,small,VS,O,29,J04,117.779296875
2,1,0,27001,0.912109375,0.11328125,3,1,8,35,5,871.930114746094,868.006591796875,0,1,faces,male,0,1,objects,P,small,VS,O,29,J04,117.779296875
0,1,0,27003,1.169921875,0.158203125,4,1,11,45,7,939.822631835938,973.003845214844,0,1,faces,male,0,1,objects,P,small,VS,O,29,J04,117.779296875
0,1,1,27020,0.24609375,0.15625,1,1,1,5,1,600.702941894531,567.343688964844,0,1,faces,female,0,1,faces,A,female,VS,F,30,J04,121.978515625
0,1,0,27022,0.60546875,0.248046875,2,1,2,13,3,624.302001953125,478.665222167969,0,1,faces,male,0,1,faces,A,female,VS,F,30,J04,121.978515625
0,1,0,27023,0.888671875,0.32421875,3,1,4,18,4,641.406921386719,922.275024414062,0,1,faces,male,0,1,faces,A,female,VS,F,30,J04,121.978515625
0,1,0,27024,1.234375,0.240234375,4,1,3,16,5,636.593566894531,737.555358886719,0,1,faces,female,0,1,faces,A,female,VS,F,30,J04,121.978515625
0,1,0,27025,1.529296875,0.576171875,5,0,10,59,6,1156.21337890625,577.280029296875,0,1,faces,female,0,1,faces,A,female,VS,F,30,J04,121.978515625
0,1,0,27030,2.83984375,0.234375,6,0,9,49,11,1018.83099365234,422.113555908203,0,1,objects,big,0,1,faces,A,female,VS,F,30,J04,121.978515625
0,1,0,27031,3.095703125,0.322265625,7,0,6,30,12,835.083740234375,345.645202636719,0,1,objects,small,0,1,faces,A,female,VS,F,30,J04,121.978515625
0,1,0,27038,0.056640625,0.23046875,1,1,6,40,1,912.694274902344,483.453430175781,0,1,faces,female,1,0,objects,P,small,VS,O,31,J04,126.177734375
0,1,0,27039,0.30078125,0.154296875,2,1,4,32,2,885.533935546875,547.373107910156,0,1,faces,male,1,0,objects,P,small,VS,O,31,J04,126.177734375
1,1,0,27042,0.876953125,0.25,3,1,8,47,5,1049.97583007812,221.857406616211,0,1,objects,small,1,0,objects,P,small,VS,O,31,J04,126.177734375
0,1,0,27043,1.140625,0.111328125,4,1,5,38,6,943.098388671875,245.456359863281,0,1,faces,female,1,0,objects,P,small,VS,O,31,J04,126.177734375
2,1,0,27044,1.267578125,0.474609375,5,0,8,47,7,1049.33642578125,246.012710571289,0,1,objects,small,1,0,objects,P,small,VS,O,31,J04,126.177734375
0,1,0,27047,2.166015625,0.16015625,6,0,11,63,10,1148.55871582031,909.982971191406,0,1,faces,male,1,0,objects,P,small,VS,O,31,J04,126.177734375
0,1,0,27050,2.71875,0.259765625,7,0,9,50,13,1026.50659179688,557.686889648438,0,1,objects,small,1,0,objects,P,small,VS,O,31,J04,126.177734375
0,0,0,27053,3.451171875,0.236328125,8,0,12,65,16,1259.72302246094,252.200378417969,1,0,NaN,NaN,1,0,objects,P,small,VS,O,31,J04,126.177734375
0,0,0,27054,3.703125,0.134765625,9,0,10,56,17,1112.82678222656,273.567016601562,0,1,faces,female,1,0,objects,P,small,VS,O,31,J04,126.177734375
0,1,1,27064,0.259765625,0.1796875,1,1,9,32,2,827.773193359375,578.794921875,0,1,faces,female,0,1,faces,A,male,VS,F,32,J04,130.376953125
0,1,0,27065,0.4609375,0.162109375,2,1,2,6,3,574.724609375,688.372619628906,0,1,objects,small,0,1,faces,A,male,VS,F,32,J04,130.376953125
0,1,1,27068,1.033203125,0.30859375,3,1,10,42,6,1003.85583496094,662.064880371094,0,1,faces,female,0,1,faces,A,male,VS,F,32,J04,130.376953125
0,1,0,27070,1.53515625,0.23828125,4,1,14,70,8,1277.63842773438,710.472717285156,0,1,faces,female,0,1,faces,A,male,VS,F,32,J04,130.376953125
0,1,0,27071,1.814453125,0.314453125,5,0,8,26,9,736.908020019531,888.989440917969,0,1,faces,male,0,1,faces,A,male,VS,F,32,J04,130.376953125
0,1,0,27076,3.06640625,0.208984375,6,0,11,48,14,1037.85595703125,368.86328125,0,1,faces,male,0,1,faces,A,male,VS,F,32,J04,130.376953125
0,1,0,27077,3.306640625,0.384765625,7,0,15,77,15,1377.66906738281,584.319030761719,0,1,faces,male,0,1,faces,A,male,VS,F,32,J04,130.376953125
0,1,1,27091,0.5078125,0.23828125,1,1,5,31,2,874.740417480469,478.435607910156,0,1,objects,big,0,0,faces,A,male,EX,F,33,J04,134.576171875
0,1,0,27093,0.94140625,0.1640625,2,1,1,11,4,697.60986328125,267.2529296875,0,1,faces,male,0,0,faces,A,male,EX,F,33,J04,134.576171875
0,1,0,27095,1.419921875,0.173828125,3,1,13,74,6,1310.71301269531,226.034622192383,0,1,faces,female,0,0,faces,A,male,EX,F,33,J04,134.576171875
1,1,0,27096,1.634765625,0.228515625,4,1,11,60,7,1110.54992675781,676.947937011719,0,1,faces,male,0,0,faces,A,male,EX,F,33,J04,134.576171875
0,1,0,27097,1.880859375,0.2421875,5,0,9,43,8,944.851806640625,754.388732910156,0,1,objects,small,0,0,faces,A,male,EX,F,33,J04,134.576171875
2,1,0,27098,2.15625,0.26953125,6,0,11,60,9,1137.68920898438,660.333679199219,0,1,faces,male,0,0,faces,A,male,EX,F,33,J04,134.576171875
0,1,0,27109,0.392578125,0.15625,1,1,7,33,2,877.879760742188,610.438598632812,1,0,NaN,NaN,1,0,objects,P,big,VS,O,34,J04,138.775390625
0,1,0,27111,0.923828125,0.666015625,2,1,2,2,4,541.836791992188,212.726913452148,0,1,faces,male,1,0,objects,P,big,VS,O,34,J04,138.775390625
0,1,0,27113,1.88671875,0.34765625,3,1,5,24,6,734.661804199219,686.909729003906,0,1,faces,female,1,0,objects,P,big,VS,O,34,J04,138.775390625
0,1,0,27114,2.25390625,0.2109375,4,1,8,42,7,922.011596679688,636.476867675781,0,1,faces,female,1,0,objects,P,big,VS,O,34,J04,138.775390625
0,1,0,27116,2.74609375,0.328125,5,0,10,50,9,1020.14526367188,550.519775390625,0,1,objects,big,1,0,objects,P,big,VS,O,34,J04,138.775390625
0,1,0,27117,3.107421875,0.2109375,6,0,14,71,10,1239.97766113281,885.04833984375,0,1,faces,female,1,0,objects,P,big,VS,O,34,J04,138.775390625
0,1,0,27118,3.34375,0.216796875,7,0,9,45,11,951.777648925781,943.093811035156,0,1,faces,male,1,0,objects,P,big,VS,O,34,J04,138.775390625
0,1,0,27119,3.591796875,0.201171875,8,0,15,79,12,1335.189453125,728.421875,0,1,faces,male,1,0,objects,P,big,VS,O,34,J04,138.775390625
0,1,0,27133,0.18359375,0.234375,1,1,8,42,1,910.6298828125,657.810852050781,0,1,faces,female,0,1,faces,P,male,VS,F,35,J04,142.974609375
0,1,0,27136,0.8046875,0.232421875,2,1,1,7,4,606.132507324219,762.256286621094,0,1,faces,female,0,1,faces,P,male,VS,F,35,J04,142.974609375
1,1,0,27139,1.751953125,0.150390625,3,1,9,43,7,988.068908691406,708.478820800781,0,1,faces,female,0,1,faces,P,male,VS,F,35,J04,142.974609375
2,1,0,27141,2.119140625,0.201171875,4,1,9,43,9,957.496276855469,749.277587890625,0,1,faces,female,0,1,faces,P,male,VS,F,35,J04,142.974609375
3,1,0,27143,2.58984375,0.5390625,5,0,9,43,11,941.093322753906,775.475708007812,0,1,faces,female,0,1,faces,P,male,VS,F,35,J04,142.974609375
0,1,0,27145,3.3359375,0.146484375,6,0,12,63,13,1169.93896484375,988.158569335938,0,1,objects,big,0,1,faces,P,male,VS,F,35,J04,142.974609375
0,1,0,27149,0.197265625,0.3359375,1,1,8,42,1,914.625793457031,656.804626464844,0,1,faces,female,0,1,faces,A,female,VS,I,36,J04,147.173828125
0,1,0,27151,0.791015625,0.177734375,2,1,2,3,3,546.371765136719,292.945434570312,0,1,objects,big,0,1,faces,A,female,VS,I,36,J04,147.173828125
0,1,1,27153,1.140625,0.162109375,3,1,9,46,5,1068.89270019531,158.399200439453,0,1,faces,female,0,1,faces,A,female,VS,I,36,J04,147.173828125
1,1,0,27158,2.083984375,0.162109375,4,1,12,66,10,1243.67919921875,387.068511962891,0,1,faces,male,0,1,faces,A,female,VS,I,36,J04,147.173828125
0,1,1,27159,2.275390625,0.18359375,5,0,5,28,11,853.706604003906,157.708709716797,0,1,faces,female,0,1,faces,A,female,VS,I,36,J04,147.173828125
2,1,0,27162,3.00390625,0.388671875,6,0,12,66,14,1250.28137207031,389.2626953125,0,1,faces,male,0,1,faces,A,female,VS,I,36,J04,147.173828125
0,1,0,27163,3.416015625,0.4296875,7,0,7,40,15,931.51416015625,490.450775146484,0,1,faces,female,0,1,faces,A,female,VS,I,36,J04,147.173828125
0,1,0,27171,0.18359375,0.158203125,1,1,6,41,1,911.118041992188,585.879455566406,0,1,faces,male,1,0,faces,P,male,VS,F,37,J04,151.373046875
0,1,0,27173,0.517578125,0.263671875,2,1,10,53,3,1052.00317382812,806.265747070312,0,1,faces,female,1,0,faces,P,male,VS,F,37,J04,151.373046875
0,1,0,27176,1.044921875,0.134765625,3,1,14,71,6,1255.51940917969,889.879638671875,0,1,faces,female,1,0,faces,P,male,VS,F,37,J04,151.373046875
0,0,0,27179,1.751953125,0.3125,4,1,5,39,9,954.960144042969,375.003967285156,1,0,NaN,NaN,1,0,faces,P,male,VS,F,37,J04,151.373046875
0,0,0,27182,2.48828125,0.263671875,5,0,7,42,12,950.280090332031,597.260192871094,0,1,faces,female,1,0,faces,P,male,VS,F,37,J04,151.373046875
0,0,1,27183,2.775390625,0.173828125,6,0,3,14,13,683.55322265625,550.361022949219,0,1,faces,female,1,0,faces,P,male,VS,F,37,J04,151.373046875
0,1,0,27195,0.34375,0.2734375,1,1,2,14,1,652.400573730469,583.040161132812,0,1,objects,big,0,1,faces,A,female,EX,I,38,J04,155.572265625
0,1,0,27196,0.650390625,0.66796875,2,1,1,9,2,545.830505371094,954.854614257812,0,1,faces,female,0,1,faces,A,female,EX,I,38,J04,155.572265625
0,1,0,27197,1.373046875,0.27734375,3,1,11,53,3,1021.85430908203,833.782287597656,0,1,faces,female,0,1,faces,A,female,EX,I,38,J04,155.572265625
0,1,0,27198,1.66796875,0.212890625,4,1,10,51,4,1081.87768554688,675.537841796875,0,1,objects,small,0,1,faces,A,female,EX,I,38,J04,155.572265625
0,1,0,27200,2.142578125,0.20703125,5,0,14,78,6,1352.60107421875,600.391174316406,0,1,faces,female,0,1,faces,A,female,EX,I,38,J04,155.572265625
0,1,0,27201,2.369140625,0.41796875,6,0,15,79,7,1371.22143554688,730.211303710938,0,1,faces,female,0,1,faces,A,female,EX,I,38,J04,155.572265625
0,1,0,27205,3.5390625,0.232421875,7,0,7,30,11,840.959167480469,311.249145507812,0,1,faces,male,0,1,faces,A,female,EX,I,38,J04,155.572265625
0,1,0,27220,1.044921875,0.228515625,1,1,6,17,5,630.20361328125,885.550598144531,0,1,objects,big,0,1,objects,A,big,VS,O,39,J04,159.771484375
0,1,0,27221,1.306640625,0.244140625,2,1,11,53,6,1025.11657714844,867.554809570312,0,1,faces,male,0,1,objects,A,big,VS,O,39,J04,159.771484375
0,1,0,27224,2.05078125,0.298828125,3,1,15,77,9,1348.53588867188,528.90673828125,0,1,objects,big,0,1,objects,A,big,VS,O,39,J04,159.771484375
0,1,0,27225,2.380859375,0.275390625,4,1,13,73,10,1355.96704101562,177.006530761719,0,1,faces,male,0,1,objects,A,big,VS,O,39,J04,159.771484375
0,1,0,27227,2.923828125,0.15234375,5,0,10,49,12,1019.08575439453,482.566101074219,0,1,faces,female,0,1,objects,A,big,VS,O,39,J04,159.771484375
0,1,0,27228,3.0859375,0.16796875,6,0,9,48,13,1033.638671875,385.338745117188,0,1,objects,small,0,1,objects,A,big,VS,O,39,J04,159.771484375
0,1,1,27243,0.1875,0.17578125,1,1,8,50,1,1010.33538818359,567.753173828125,0,1,faces,male,1,1,faces,P,female,VS,I,40,J04,163.970703125
1,0,0,27245,0.50390625,0.810546875,2,1,7,49,3,1021.67333984375,447.413635253906,1,0,NaN,NaN,1,1,faces,P,female,VS,I,40,J04,163.970703125
0,0,0,27246,1.333984375,0.193359375,3,1,11,57,4,1172.35632324219,354.771057128906,0,1,objects,big,1,1,faces,P,female,VS,I,40,J04,163.970703125
0,0,1,27247,1.5703125,0.154296875,4,1,2,13,5,660.875305175781,446.818542480469,0,1,faces,male,1,1,faces,P,female,VS,I,40,J04,163.970703125
2,0,0,27249,1.935546875,0.220703125,5,0,7,49,7,1036.54272460938,419.938690185547,1,0,NaN,NaN,1,1,faces,P,female,VS,I,40,J04,163.970703125
0,0,1,27250,2.20703125,0.134765625,6,0,5,27,8,787.429077148438,910.12548828125,0,1,faces,male,1,1,faces,P,female,VS,I,40,J04,163.970703125
0,0,0,27253,2.92578125,0.11328125,7,0,15,79,11,1396.0517578125,739.489074707031,0,1,faces,male,1,1,faces,P,female,VS,I,40,J04,163.970703125
0,0,0,27254,3.0859375,0.69140625,8,0,12,59,12,1112.47619628906,510.549865722656,0,1,faces,female,1,1,faces,P,female,VS,I,40,J04,163.970703125
3,0,0,27255,3.79296875,0.515625,9,0,7,49,13,1017.3857421875,470.377990722656,1,0,NaN,NaN,1,1,faces,P,female,VS,I,40,J04,163.970703125
0,1,0,27262,1.3828125,0.2109375,1,1,10,52,5,1033.17749023438,700.925720214844,0,1,faces,male,0,0,objects,A,big,EX,O,41,J04,168.169921875
0,1,1,27263,1.607421875,0.150390625,2,1,6,43,6,980.142578125,738.6298828125,0,1,objects,big,0,0,objects,A,big,EX,O,41,J04,168.169921875
0,1,0,27265,1.96484375,0.435546875,3,1,13,70,8,1252.79699707031,788.121826171875,0,1,faces,male,0,0,objects,A,big,EX,O,41,J04,168.169921875
0,1,1,27268,3.51953125,0.181640625,4,1,8,49,11,1092.82458496094,419.703308105469,0,1,faces,male,0,0,objects,A,big,EX,O,41,J04,168.169921875
0,1,0,27279,0.474609375,0.306640625,1,1,2,5,2,594.28271484375,577.76171875,0,1,faces,female,0,0,faces,P,female,VS,F,42,J04,172.369140625
0,1,0,27282,1.54296875,0.341796875,2,1,10,44,5,952.087524414062,869.678283691406,0,1,faces,male,0,0,faces,P,female,VS,F,42,J04,172.369140625
0,1,0,27288,3.25,0.3828125,3,1,13,60,11,1114.3115234375,594.361694335938,0,1,objects,big,0,0,faces,P,female,VS,F,42,J04,172.369140625
0,1,0,27299,0.98828125,0.318359375,1,1,7,33,4,836.377807617188,675.7890625,0,1,faces,female,0,0,faces,A,male,VS,I,43,J04,176.568359375
0,1,0,27302,2.2421875,0.197265625,2,1,6,28,7,827.873046875,188.364288330078,0,1,faces,female,0,0,faces,A,male,VS,I,43,J04,176.568359375
0,1,0,27303,2.478515625,0.197265625,3,1,15,74,8,1378.58630371094,215.591918945312,0,1,faces,male,0,0,faces,A,male,VS,I,43,J04,176.568359375
0,1,0,27306,3.353515625,0.265625,4,1,5,26,11,755.89111328125,872.540710449219,0,1,faces,male,0,0,faces,A,male,VS,I,43,J04,176.568359375
0,1,0,27316,1.181640625,0.2734375,1,1,6,18,4,614.365539550781,942.295532226562,0,1,faces,male,0,1,faces,A,female,EX,F,44,J04,180.767578125
0,1,0,27320,2.724609375,0.212890625,2,1,12,39,8,991.621276855469,324.642883300781,0,1,faces,female,0,1,faces,A,female,EX,F,44,J04,180.767578125
0,1,0,27322,3.19921875,0.279296875,3,1,3,11,10,646.231079101562,221.526123046875,0,1,faces,male,0,1,faces,A,female,EX,F,44,J04,180.767578125
0,1,0,27324,3.982421875,0.20703125,4,1,14,68,12,1300.57470703125,544.365661621094,0,1,faces,male,0,1,faces,A,female,EX,F,44,J04,180.767578125
0,1,0,27334,0.5859375,0.419921875,1,1,3,6,3,511.371551513672,627.065551757812,0,1,objects,small,1,1,faces,P,female,VS,F,45,J04,184.966796875
0,0,0,27335,1.0234375,1.0859375,2,1,5,24,4,711.973999023438,687.120178222656,1,0,NaN,NaN,1,1,faces,P,female,VS,F,45,J04,184.966796875
0,0,0,27336,2.15625,0.390625,3,1,10,68,5,1237.78369140625,516.553955078125,0,1,faces,male,1,1,faces,P,female,VS,F,45,J04,184.966796875
0,0,0,27338,2.74609375,0.990234375,4,1,8,53,7,1031.10595703125,813.43310546875,0,1,faces,female,1,1,faces,P,female,VS,F,45,J04,184.966796875
0,1,0,27351,0.2109375,0.16796875,1,1,8,33,1,902.310485839844,618.602844238281,0,1,faces,female,0,1,objects,A,small,VS,O,46,J04,189.166015625
1,1,0,27352,0.388671875,0.25,2,1,7,30,2,812.670043945312,385.187377929688,0,1,objects,small,0,1,objects,A,small,VS,O,46,J04,189.166015625
0,1,0,27353,0.671875,0.29296875,3,1,10,38,3,920.988464355469,244.566482543945,0,1,objects,big,0,1,objects,A,small,VS,O,46,J04,189.166015625
0,1,0,27355,1.1640625,0.189453125,4,1,14,77,5,1345.48986816406,581.292724609375,0,1,objects,small,0,1,objects,A,small,VS,O,46,J04,189.166015625
0,1,0,27356,1.916015625,0.201171875,5,0,5,18,6,635.570434570312,975.9453125,0,1,objects,big,0,1,objects,A,small,VS,O,46,J04,189.166015625
0,1,0,27358,2.369140625,0.1796875,6,0,11,44,8,933.916442871094,877.974426269531,0,1,faces,male,0,1,objects,A,small,VS,O,46,J04,189.166015625
0,1,0,27359,2.59375,0.16015625,7,0,3,13,9,666.990051269531,393.198547363281,0,1,faces,male,0,1,objects,A,small,VS,O,46,J04,189.166015625
2,1,1,27364,3.576171875,0.185546875,8,0,7,30,14,859.839477539062,344.911987304688,0,1,objects,small,0,1,objects,A,small,VS,O,46,J04,189.166015625
0,1,0,27373,1.212890625,0.21484375,1,1,12,59,6,1111.92395019531,510.486419677734,0,1,faces,female,0,1,faces,P,female,VS,I,47,J04,193.365234375
0,1,0,27374,1.451171875,0.76171875,2,1,13,70,7,1227.54504394531,731.245178222656,0,1,faces,female,0,1,faces,P,female,VS,I,47,J04,193.365234375
0,1,1,27375,2.25390625,0.25390625,3,1,9,48,8,1066.498046875,353.846893310547,0,1,faces,female,0,1,faces,P,female,VS,I,47,J04,193.365234375
0,1,0,27377,3.552734375,0.19140625,4,1,15,75,10,1341.20727539062,358.73828125,0,1,objects,big,0,1,faces,P,female,VS,I,47,J04,193.365234375
0,1,0,27378,3.771484375,0.25,5,0,8,47,11,1044.69323730469,274.907043457031,0,1,faces,female,0,1,faces,P,female,VS,I,47,J04,193.365234375
1,1,0,27385,0.369140625,0.201171875,1,1,3,31,1,846.105285644531,476.045959472656,0,1,faces,female,0,0,objects,A,small,EX,O,48,J04,197.564453125
0,1,0,27386,0.6015625,0.392578125,2,1,2,8,2,545.467102050781,872.738952636719,0,1,faces,female,0,0,objects,A,small,EX,O,48,J04,197.564453125
0,1,1,27387,1.03515625,0.171875,3,1,9,53,3,1070.17468261719,795.216979980469,0,1,faces,female,0,0,objects,A,small,EX,O,48,J04,197.564453125
0,1,0,27389,1.423828125,0.412109375,4,1,11,61,5,1152.21862792969,789.154907226562,0,1,faces,male,0,0,objects,A,small,EX,O,48,J04,197.564453125
0,1,0,27390,2.404296875,0.572265625,5,0,12,66,6,1241.75769042969,389.332672119141,0,1,faces,male,0,0,objects,A,small,EX,O,48,J04,197.564453125
0,1,0,27391,2.994140625,0.3515625,6,0,8,50,7,1047.15209960938,524.435913085938,0,1,faces,male,0,0,objects,A,small,EX,O,48,J04,197.564453125
0,1,0,27392,3.36328125,0.421875,7,0,10,59,8,1127.28796386719,530.329650878906,0,1,objects,small,0,0,objects,A,small,EX,O,48,J04,197.564453125
2,1,0,27393,3.81640625,0.1875,8,0,3,31,9,881.428405761719,479.813934326172,0,1,faces,female,0,0,objects,A,small,EX,O,48,J04,197.564453125
0,1,0,27406,0.255859375,0.28125,1,1,6,41,1,975.409301757812,559.300170898438,0,1,objects,big,0,1,faces,A,male,EX,I,49,J04,201.763671875
0,1,0,27410,1.501953125,0.197265625,2,1,2,10,5,670.588195800781,174.47673034668,0,1,faces,male,0,1,faces,A,male,EX,I,49,J04,201.763671875
0,1,1,27412,1.958984375,0.201171875,3,1,11,59,7,1189.70568847656,507.677032470703,0,1,faces,male,0,1,faces,A,male,EX,I,49,J04,201.763671875
0,1,0,27414,2.787109375,0.169921875,4,1,15,79,9,1310.33801269531,734.040832519531,0,1,objects,small,0,1,faces,A,male,EX,I,49,J04,201.763671875
0,1,0,27416,3.30859375,0.26953125,5,0,14,76,11,1386.64721679688,421.672149658203,0,1,faces,male,0,1,faces,A,male,EX,I,49,J04,201.763671875
0,1,0,27433,1.607421875,0.73828125,1,1,8,33,6,865.220458984375,689.230346679688,0,1,faces,female,0,0,faces,A,female,VS,I,50,J04,205.962890625
0,1,1,27437,3.359375,0.150390625,2,1,14,71,10,1244.30725097656,810.333862304688,0,1,objects,small,0,0,faces,A,female,VS,I,50,J04,205.962890625
0,1,0,27439,3.76171875,0.533203125,3,1,12,59,12,1182.11804199219,548.406127929688,0,1,faces,male,0,0,faces,A,female,VS,I,50,J04,205.962890625
0,1,1,27453,1.748046875,0.271484375,1,1,10,63,7,1159.60205078125,917.742126464844,0,1,objects,small,0,1,faces,A,male,EX,F,51,J04,210.162109375
0,1,0,27455,2.205078125,0.357421875,2,1,15,81,9,1386.63269042969,930.693237304688,0,1,faces,male,0,1,faces,A,male,EX,F,51,J04,210.162109375
0,1,0,27456,2.576171875,0.423828125,3,1,12,71,10,1275.67919921875,844.008178710938,0,1,faces,male,0,1,faces,A,male,EX,F,51,J04,210.162109375
0,1,0,27457,3.03515625,0.375,4,1,9,59,11,1169.31872558594,506.7109375,0,1,faces,male,0,1,faces,A,male,EX,F,51,J04,210.162109375
0,1,0,27458,3.42578125,0.400390625,5,0,11,66,12,1259.80493164062,362.124969482422,0,1,objects,small,0,1,faces,A,male,EX,F,51,J04,210.162109375
0,1,0,27459,3.859375,0.83203125,6,0,7,39,13,974.897521972656,344.492004394531,0,1,faces,female,0,1,faces,A,male,EX,F,51,J04,210.162109375
1,1,0,27467,0.8125,0.197265625,1,1,11,65,2,1287.9521484375,278.568298339844,0,1,faces,male,1,0,faces,P,female,VS,I,52,J04,214.361328125
0,1,0,27468,1.037109375,0.486328125,2,1,5,40,3,978.175598144531,481.097717285156,0,1,faces,male,1,0,faces,P,female,VS,I,52,J04,214.361328125
0,1,0,27469,1.544921875,0.2578125,3,1,1,14,4,668.261169433594,576.8828125,0,1,objects,small,1,0,faces,P,female,VS,I,52,J04,214.361328125
0,1,0,27471,2.001953125,0.154296875,4,1,7,43,6,1009.83764648438,788.953918457031,1,1,faces,female,1,0,faces,P,female,VS,I,52,J04,214.361328125
0,1,0,27473,2.34765625,0.296875,5,0,10,59,8,1164.9599609375,576.263793945312,0,1,faces,female,1,0,faces,P,female,VS,I,52,J04,214.361328125
0,1,0,27474,2.66015625,0.15234375,6,0,12,68,9,1268.33410644531,574.408874511719,0,1,faces,female,1,0,faces,P,female,VS,I,52,J04,214.361328125
0,1,0,27475,2.83984375,0.1171875,7,0,14,72,10,1295.75146484375,972.534790039062,0,1,faces,male,1,0,faces,P,female,VS,I,52,J04,214.361328125
0,1,0,27476,2.96875,0.287109375,8,0,13,71,11,1278.63830566406,890.241943359375,0,1,faces,male,1,0,faces,P,female,VS,I,52,J04,214.361328125
2,1,0,27478,3.607421875,0.154296875,9,0,11,65,13,1226.50561523438,285.673004150391,0,1,faces,male,1,0,faces,P,female,VS,I,52,J04,214.361328125
0,1,0,27479,3.783203125,0.20703125,10,0,8,47,14,1040.50512695312,281.181030273438,0,1,faces,male,1,0,faces,P,female,VS,I,52,J04,214.361328125
0,1,0,27487,0.4921875,0.14453125,1,1,6,44,2,1001.65563964844,814.220947265625,0,1,faces,female,0,1,faces,A,female,EX,I,53,J04,218.560546875
0,1,0,27488,0.677734375,0.177734375,2,1,2,12,3,621.17919921875,309.098083496094,0,1,faces,female,0,1,faces,A,female,EX,I,53,J04,218.560546875
0,1,0,27491,1.30859375,0.44140625,3,1,13,74,6,1377.43505859375,276.139617919922,0,1,faces,female,0,1,faces,A,female,EX,I,53,J04,218.560546875
0,1,0,27492,1.80859375,0.41015625,4,1,3,31,7,855.521423339844,456.001312255859,0,1,faces,male,0,1,faces,A,female,EX,I,53,J04,218.560546875
0,1,0,27494,2.44140625,0.43359375,5,0,10,69,9,1266.54907226562,674.949096679688,0,1,faces,female,0,1,faces,A,female,EX,I,53,J04,218.560546875
0,1,1,27496,2.9921875,0.23828125,6,0,12,72,11,1289.13623046875,941.556274414062,0,1,faces,male,0,1,faces,A,female,EX,I,53,J04,218.560546875
0,1,0,27499,3.650390625,0.37109375,7,0,15,81,14,1378.67565917969,908.085266113281,0,1,objects,big,0,1,faces,A,female,EX,I,53,J04,218.560546875
0,1,0,27503,1.0234375,0.29296875,1,1,12,64,1,1264.91467285156,167.273941040039,0,1,faces,female,0,1,faces,A,female,EX,F,54,J04,222.759765625
0,1,0,27505,1.55859375,0.205078125,2,1,15,78,3,1394.69946289062,675.712890625,0,1,faces,male,0,1,faces,A,female,EX,F,54,J04,222.759765625
0,1,0,27508,2.19921875,0.431640625,3,1,11,63,6,1183.79089355469,965.499450683594,0,1,objects,small,0,1,faces,A,female,EX,F,54,J04,222.759765625
0,1,0,27511,3.263671875,0.6171875,4,1,1,14,9,641.090087890625,585.666931152344,0,1,faces,female,0,1,faces,A,female,EX,F,54,J04,222.759765625
0,1,0,27521,1.095703125,0.55859375,1,1,1,1,4,563.242370605469,188.084106445312,0,1,faces,female,1,1,faces,P,male,VS,F,55,J04,226.958984375
0,0,0,27522,1.7109375,0.888671875,2,1,3,9,5,567.128295898438,948.503051757812,1,0,NaN,NaN,1,1,faces,P,male,VS,F,55,J04,226.958984375
0,0,0,27523,2.666015625,0.216796875,3,1,11,63,6,1202.64611816406,968.190124511719,0,1,objects,big,1,1,faces,P,male,VS,F,55,J04,226.958984375
0,0,0,27526,3.626953125,0.21484375,4,1,12,65,9,1286.44116210938,290.443084716797,0,1,objects,big,1,1,faces,P,male,VS,F,55,J04,226.958984375
0,0,0,27527,3.85546875,0.23046875,5,0,13,74,10,1373.48645019531,274.743255615234,0,1,faces,female,1,1,faces,P,male,VS,F,55,J04,226.958984375
0,1,0,27530,0.201171875,0.228515625,1,1,6,42,1,932.7734375,595.832580566406,0,1,objects,big,1,0,faces,P,male,VS,F,56,J04,231.158203125
0,1,1,27533,1.0234375,0.150390625,2,1,13,71,4,1228.77001953125,859.760437011719,1,0,NaN,NaN,1,0,faces,P,male,VS,F,56,J04,231.158203125
1,1,0,27537,1.974609375,0.201171875,3,1,14,77,8,1312.39892578125,526.956237792969,0,1,faces,male,1,0,faces,P,male,VS,F,56,J04,231.158203125
0,1,1,27541,2.8203125,0.1953125,4,1,1,2,12,582.18896484375,269.497131347656,0,1,faces,female,1,0,faces,P,male,VS,F,56,J04,231.158203125
0,1,0,27543,3.203125,0.265625,5,0,8,55,14,1179.43115234375,163.660736083984,0,1,faces,male,1,0,faces,P,male,VS,F,56,J04,231.158203125
2,1,1,27544,3.501953125,0.1484375,6,0,14,77,15,1352.73608398438,537.01806640625,0,1,faces,male,1,0,faces,P,male,VS,F,56,J04,231.158203125
0,1,0,27552,0.6640625,0.296875,1,1,8,39,2,989.320495605469,382.769409179688,0,1,faces,female,1,0,faces,P,female,VS,I,57,J04,235.357421875
0,1,0,27553,0.994140625,0.234375,2,1,5,22,3,716.258605957031,470.015228271484,0,1,faces,female,1,0,faces,P,female,VS,I,57,J04,235.357421875
0,1,0,27554,1.244140625,0.166015625,3,1,7,31,4,813.9658203125,478.092956542969,1,0,NaN,NaN,1,0,faces,P,female,VS,I,57,J04,235.357421875
0,1,0,27556,1.54296875,0.35546875,4,1,11,70,6,1265.79943847656,778.577453613281,0,1,faces,female,1,0,faces,P,female,VS,I,57,J04,235.357421875
0,1,0,27557,1.91015625,0.22265625,5,0,10,62,7,1204.92456054688,847.413513183594,0,1,faces,male,1,0,faces,P,female,VS,I,57,J04,235.357421875
0,1,0,27559,3.20703125,0.34765625,6,0,4,19,9,777.491455078125,189.206848144531,0,1,faces,female,1,0,faces,P,female,VS,I,57,J04,235.357421875
0,1,0,27565,0.353515625,0.1640625,1,1,6,32,1,824.831848144531,589.954223632812,0,1,objects,big,0,1,objects,A,big,VS,O,58,J04,239.556640625
0,1,0,27566,0.529296875,0.12890625,2,1,4,23,2,731.872375488281,572.416687011719,0,1,faces,male,0,1,objects,A,big,VS,O,58,J04,239.556640625
0,1,0,27567,0.6796875,0.17578125,3,1,1,4,3,545.168029785156,441.347473144531,0,1,objects,big,0,1,objects,A,big,VS,O,58,J04,239.556640625
0,1,0,27569,1.318359375,0.447265625,4,1,13,70,5,1285.69250488281,783.305541992188,0,1,objects,small,0,1,objects,A,big,VS,O,58,J04,239.556640625
0,1,0,27571,2.59765625,0.31640625,5,0,2,11,7,652.625793457031,265.630584716797,0,1,objects,big,0,1,objects,A,big,VS,O,58,J04,239.556640625
0,1,0,27573,3.5390625,0.341796875,6,0,12,68,9,1281.28344726562,551.088439941406,0,1,faces,female,0,1,objects,A,big,VS,O,58,J04,239.556640625
0,1,0,27586,0.416015625,1.359375,1,1,5,31,2,905.974792480469,419.092498779297,0,1,faces,male,0,0,objects,A,small,VS,O,59,J04,243.755859375
0,1,1,27587,1.796875,0.20703125,2,1,3,15,3,690.048522949219,592.967041015625,0,1,faces,male,0,0,objects,A,small,VS,O,59,J04,243.755859375
0,1,0,27589,2.21875,0.14453125,3,1,10,66,5,1294.14636230469,349.223205566406,0,1,faces,female,0,0,objects,A,small,VS,O,59,J04,243.755859375
0,1,0,27606,1.640625,0.111328125,1,1,15,79,5,1400.1005859375,733.775146484375,0,1,objects,big,0,1,objects,P,big,VS,O,60,J04,247.955078125
0,1,0,27630,0.05859375,0.125,1,1,12,48,1,1066.21264648438,310.362640380859,0,1,faces,female,0,1,objects,A,small,EX,O,61,J04,252.154296875
0,1,0,27697,0.71484375,0.12109375,1,1,6,23,4,713.252502441406,526.413940429688,0,1,faces,female,0,1,objects,P,big,VS,O,63,J04,260.552734375
0,1,0,27734,2.109375,0.134765625,1,1,1,2,7,610.420166015625,211.893447875977,0,1,objects,small,0,0,faces,A,male,VS,I,64,J04,264.751953125
0,1,0,27738,3.103515625,0.18359375,2,1,6,16,11,706.56982421875,718.317749023438,0,1,objects,small,0,0,faces,A,male,VS,I,64,J04,264.751953125
0,1,0,27739,3.30859375,0.142578125,3,1,2,8,12,539.157043457031,810.14501953125,0,1,faces,female,0,0,faces,A,male,VS,I,64,J04,264.751953125
1,1,0,27774,0.625,0.314453125,1,1,8,38,5,1005.94030761719,207.624664306641,0,1,faces,male,0,1,faces,A,female,VS,F,65,J04,268.951171875
2,1,0,27776,1.138671875,0.236328125,2,1,8,38,7,977.044982910156,286.360382080078,0,1,faces,male,0,1,faces,A,female,VS,F,65,J04,268.951171875
3,1,1,27781,3.51171875,0.25,3,1,8,38,12,950.238647460938,197.590896606445,0,1,faces,male,0,1,faces,A,female,VS,F,65,J04,268.951171875
0,1,0,27811,2.3359375,0.42578125,1,1,1,6,11,607.854797363281,596.7529296875,0,1,faces,female,0,0,faces,P,male,VS,F,66,J04,273.150390625
0,1,0,27837,0.36328125,0.1015625,1,1,9,39,1,966.285827636719,359.566345214844,0,1,faces,female,1,1,objects,P,big,VS,O,67,J04,277.349609375
0,1,0,27838,0.6171875,0.16015625,2,1,11,57,2,1206.33703613281,308.022247314453,0,1,objects,big,1,1,objects,P,big,VS,O,67,J04,277.349609375
0,1,0,27839,0.79296875,0.10546875,3,1,13,66,3,1282.66845703125,362.0166015625,1,0,NaN,NaN,1,1,objects,P,big,VS,O,67,J04,277.349609375
0,1,0,27865,0.9375,0.197265625,1,1,2,7,7,568.0068359375,703.45751953125,0,1,faces,female,0,1,objects,A,big,EX,O,68,J04,281.548828125
1,1,0,27893,0.74609375,0.310546875,1,1,7,30,3,841.506958007812,310.546691894531,0,1,faces,female,0,0,faces,P,male,VS,F,69,J04,285.748046875
2,1,0,27902,3.26953125,0.58203125,2,1,7,30,12,830.006103515625,296.704528808594,0,1,faces,female,0,0,faces,P,male,VS,F,69,J04,285.748046875
0,1,0,27954,0.205078125,0.361328125,1,1,6,22,1,738.232421875,406.452362060547,0,1,faces,male,0,1,faces,P,male,VS,I,71,J04,294.146484375
0,1,0,27962,1.81640625,0.212890625,2,1,1,1,9,514.157348632812,167.626647949219,0,1,faces,female,0,1,faces,P,male,VS,I,71,J04,294.146484375
0,1,0,27963,2.072265625,0.13671875,3,1,8,30,10,867.617065429688,314.431823730469,0,1,objects,big,0,1,faces,P,male,VS,I,71,J04,294.146484375
0,1,0,27965,2.376953125,0.15234375,4,1,9,38,12,972.5615234375,224.47477722168,0,1,faces,female,0,1,faces,P,male,VS,I,71,J04,294.146484375
0,1,0,28076,0.205078125,0.177734375,1,1,5,23,1,728.815063476562,545.75390625,0,1,objects,big,1,1,faces,P,male,VS,I,72,J04,298.345703125
0,1,0,28077,0.396484375,0.146484375,2,1,4,15,2,649.030944824219,618.083435058594,0,1,objects,small,1,1,faces,P,male,VS,I,72,J04,298.345703125
0,1,0,28078,0.568359375,0.181640625,3,1,6,25,3,729.080383300781,694.658996582031,0,1,faces,male,1,1,faces,P,male,VS,I,72,J04,298.345703125
0,1,0,28079,0.79296875,0.380859375,4,1,2,11,4,651.99072265625,261.379547119141,0,1,faces,female,1,1,faces,P,male,VS,I,72,J04,298.345703125
0,1,0,28083,2.705078125,0.275390625,5,0,14,79,8,1353.19055175781,743.47900390625,0,1,faces,female,1,1,faces,P,male,VS,I,72,J04,298.345703125
0,1,0,28084,3,0.318359375,6,0,10,61,9,1153.24047851562,734.742736816406,0,1,faces,female,1,1,faces,P,male,VS,I,72,J04,298.345703125
0,0,0,28085,3.35546875,1.029296875,7,0,7,30,10,852.84765625,317.337066650391,1,0,NaN,NaN,1,1,faces,P,male,VS,I,72,J04,298.345703125
0,1,0,28093,0.267578125,0.259765625,1,1,8,41,2,913.331848144531,492.215789794922,0,1,faces,male,0,1,objects,A,big,EX,O,73,J04,302.544921875
0,1,0,28094,0.541015625,0.66015625,2,1,6,32,3,870.632141113281,507.809265136719,0,1,objects,small,0,1,objects,A,big,EX,O,73,J04,302.544921875
1,1,0,28096,1.375,0.24609375,3,1,3,6,5,554.097106933594,629.232727050781,0,1,objects,big,0,1,objects,A,big,EX,O,73,J04,302.544921875
0,1,0,28097,1.640625,0.29296875,4,1,2,4,6,591.56494140625,391.671813964844,0,1,faces,male,0,1,objects,A,big,EX,O,73,J04,302.544921875
2,1,0,28099,2.232421875,0.23828125,5,0,3,6,8,559.755004882812,630.722473144531,0,1,objects,big,0,1,objects,A,big,EX,O,73,J04,302.544921875
0,1,0,28100,2.515625,0.2265625,6,0,5,30,9,908.959167480469,328.095062255859,0,1,objects,big,0,1,objects,A,big,EX,O,73,J04,302.544921875
0,1,1,28101,2.791015625,0.224609375,7,0,14,70,10,1277.59509277344,777.00537109375,0,1,faces,female,0,1,objects,A,big,EX,O,73,J04,302.544921875
0,1,0,28103,3.197265625,0.21484375,8,0,12,61,12,1140.25354003906,738.648742675781,0,1,faces,female,0,1,objects,A,big,EX,O,73,J04,302.544921875
0,1,0,28104,3.427734375,0.171875,9,0,13,69,13,1256.68530273438,628.137390136719,0,1,objects,small,0,1,objects,A,big,EX,O,73,J04,302.544921875
0,1,0,28105,3.62109375,0.685546875,10,0,9,49,14,1033.13806152344,482.593139648438,0,1,faces,female,0,1,objects,A,big,EX,O,73,J04,302.544921875
0,1,0,28116,0.833984375,0.265625,1,1,7,15,4,613.231262207031,652.728149414062,0,1,objects,big,0,0,faces,A,female,EX,F,74,J04,306.744140625
0,1,0,28117,1.130859375,0.6484375,2,1,4,9,5,520.863586425781,922.911682128906,0,1,faces,female,0,0,faces,A,female,EX,F,74,J04,306.744140625
0,1,0,28118,1.79296875,0.431640625,3,1,9,18,6,617.172668457031,909.776000976562,0,1,faces,female,0,0,faces,A,female,EX,F,74,J04,306.744140625
0,1,0,28119,2.2890625,0.490234375,4,1,6,11,7,659.843383789062,239.190216064453,0,1,faces,male,0,0,faces,A,female,EX,F,74,J04,306.744140625
0,1,1,28120,2.796875,0.3828125,5,0,1,1,8,580.308715820312,166.512298583984,0,1,faces,male,0,0,faces,A,female,EX,F,74,J04,306.744140625
0,1,0,28132,0.267578125,0.86328125,1,1,9,50,2,1066.15319824219,507.732818603516,0,1,objects,small,1,0,objects,P,small,VS,O,75,J04,310.943359375
0,1,0,28133,1.1640625,0.458984375,2,1,12,71,3,1255.85107421875,838.560546875,0,1,faces,female,1,0,objects,P,small,VS,O,75,J04,310.943359375
0,1,0,28135,2.69921875,0.380859375,3,1,13,74,5,1344.81042480469,210.546829223633,0,1,objects,big,1,0,objects,P,small,VS,O,75,J04,310.943359375
0,1,0,28136,3.130859375,0.537109375,4,1,7,37,6,970.075927734375,147.605102539062,0,1,faces,female,1,0,objects,P,small,VS,O,75,J04,310.943359375
0,0,0,28138,3.896484375,0.619140625,5,0,3,7,8,539.835571289062,719.793640136719,1,0,NaN,NaN,1,0,objects,P,small,VS,O,75,J04,310.943359375
1,1,0,28147,0.2265625,0.544921875,1,1,5,31,1,856.403259277344,421.673583984375,0,1,faces,male,0,0,faces,A,male,VS,F,76,J04,315.142578125
0,1,0,28150,1.509765625,0.19140625,2,1,4,21,4,770.519226074219,302.228485107422,0,1,objects,small,0,0,faces,A,male,VS,F,76,J04,315.142578125
0,1,0,28151,1.716796875,0.2734375,3,1,3,19,5,777.903930664062,149.513244628906,0,1,faces,male,0,0,faces,A,male,VS,F,76,J04,315.142578125
0,1,0,28153,2.1953125,0.203125,4,1,6,38,7,979.03515625,258.021728515625,0,1,faces,female,0,0,faces,A,male,VS,F,76,J04,315.142578125
2,1,0,28154,2.416015625,0.212890625,5,0,5,31,8,887.475341796875,447.987396240234,0,1,faces,male,0,0,faces,A,male,VS,F,76,J04,315.142578125
0,1,0,28155,2.646484375,0.181640625,6,0,8,43,9,936.955139160156,724.24951171875,0,1,faces,female,0,0,faces,A,male,VS,F,76,J04,315.142578125
0,1,0,28157,3.033203125,0.125,7,0,9,45,11,970.154113769531,917.595581054688,0,1,faces,male,0,0,faces,A,male,VS,F,76,J04,315.142578125
0,1,1,28158,3.18359375,0.15625,8,0,13,72,12,1298.984375,889.93359375,0,1,faces,female,0,0,faces,A,male,VS,F,76,J04,315.142578125
1,1,0,28167,0.267578125,0.23828125,1,1,10,50,1,1054.16320800781,516.1787109375,0,1,faces,male,0,0,faces,P,female,VS,I,77,J04,319.341796875
0,1,0,28169,0.6953125,0.12890625,2,1,6,25,3,758.192687988281,703.281066894531,0,1,faces,male,0,0,faces,P,female,VS,I,77,J04,319.341796875
0,1,0,28170,0.857421875,0.1953125,3,1,1,4,4,607.654052734375,429.369232177734,0,1,objects,big,0,0,faces,P,female,VS,I,77,J04,319.341796875
0,1,0,28172,1.216796875,0.177734375,4,1,4,12,6,677.733337402344,336.672821044922,0,1,faces,female,0,0,faces,P,female,VS,I,77,J04,319.341796875
1,1,0,28173,1.43359375,0.208984375,5,0,8,37,7,1008.75720214844,120.691413879395,0,1,faces,male,0,0,faces,P,female,VS,I,77,J04,319.341796875
0,1,0,28175,1.841796875,0.234375,6,0,2,8,9,543.426635742188,798.321228027344,0,1,faces,female,0,0,faces,P,female,VS,I,77,J04,319.341796875
0,1,0,28176,2.123046875,0.1796875,7,0,14,66,10,1265.84216308594,386.175689697266,0,1,objects,small,0,0,faces,P,female,VS,I,77,J04,319.341796875
2,1,0,28178,2.490234375,0.23828125,8,0,10,50,12,1077.20434570312,540.351135253906,0,1,faces,male,0,0,faces,P,female,VS,I,77,J04,319.341796875
0,1,0,28179,2.744140625,0.306640625,9,0,11,52,13,1080.43408203125,758.751281738281,0,1,faces,male,0,0,faces,P,female,VS,I,77,J04,319.341796875
0,1,0,28180,3.060546875,0.146484375,10,0,12,53,14,1065.07348632812,841.220886230469,0,1,faces,female,0,0,faces,P,female,VS,I,77,J04,319.341796875
0,1,1,28181,3.25390625,0.134765625,11,0,15,80,15,1405.05346679688,828.557067871094,0,1,faces,female,0,0,faces,P,female,VS,I,77,J04,319.341796875
2,1,1,28183,3.583984375,0.15625,12,0,8,37,17,1005.46356201172,140.339569091797,0,1,faces,male,0,0,faces,P,female,VS,I,77,J04,319.341796875
0,1,0,28188,0.24609375,0.193359375,1,1,9,49,1,1074.04650878906,394.193695068359,0,1,faces,male,1,1,faces,P,female,VS,F,78,J04,323.541015625
0,1,0,28196,1.939453125,0.166015625,2,1,6,34,9,814.775268554688,771.076538085938,1,0,NaN,NaN,1,1,faces,P,female,VS,F,78,J04,323.541015625
1,1,0,28205,0.365234375,0.166015625,1,1,7,41,2,946.276306152344,526.267211914062,0,1,faces,female,0,1,objects,A,big,VS,O,79,J04,327.740234375
0,1,0,28209,0.953125,0.40234375,2,1,3,8,6,542.48291015625,852.787414550781,0,1,faces,male,0,1,objects,A,big,VS,O,79,J04,327.740234375
0,1,1,28212,1.931640625,0.16796875,3,1,12,69,9,1225.86706542969,623.81884765625,0,1,objects,small,0,1,objects,A,big,VS,O,79,J04,327.740234375
2,1,0,28214,2.349609375,0.177734375,4,1,7,41,11,960.763732910156,517.98486328125,0,1,faces,female,0,1,objects,A,big,VS,O,79,J04,327.740234375
0,1,0,28233,2.234375,0.41015625,1,1,5,29,7,889.004150390625,221.771560668945,0,1,faces,male,1,0,faces,P,female,VS,I,80,J04,331.939453125
0,1,0,28235,2.958984375,0.154296875,2,1,8,51,9,1021.30340576172,688.968566894531,0,1,objects,big,1,0,faces,P,female,VS,I,80,J04,331.939453125
0,0,0,28236,3.126953125,0.205078125,3,1,7,43,10,960.983825683594,699.641540527344,1,0,NaN,NaN,1,0,faces,P,female,VS,I,80,J04,331.939453125
0,0,1,28237,3.3671875,0.19921875,4,1,11,71,11,1301.55578613281,838.296630859375,0,1,faces,male,1,0,faces,P,female,VS,I,80,J04,331.939453125
0,0,0,28239,3.87109375,0.349609375,5,0,15,81,13,1373.58251953125,898.85791015625,0,1,faces,female,1,0,faces,P,female,VS,I,80,J04,331.939453125
0,1,0,28250,1.291015625,0.14453125,1,1,2,10,4,696.583618164062,116.858528137207,0,1,objects,small,0,0,faces,P,male,VS,F,81,J04,336.138671875
0,1,0,28251,2.63671875,1.015625,2,1,8,55,5,1123.76635742188,107.373260498047,0,1,faces,male,0,0,faces,P,male,VS,F,81,J04,336.138671875
0,1,0,28252,3.708984375,0.142578125,3,1,6,53,6,1057.13439941406,849.805236816406,0,1,faces,male,0,0,faces,P,male,VS,F,81,J04,336.138671875
0,1,0,28266,1.685546875,0.1875,1,1,1,1,6,578.736999511719,141.053787231445,1,0,NaN,NaN,1,1,objects,P,big,VS,O,82,J04,340.337890625
0,1,0,28279,1.47265625,0.13671875,1,1,11,55,7,1204.87487792969,178.191589355469,0,1,faces,female,0,1,objects,A,small,VS,O,83,J04,344.537109375
0,1,0,28282,2.068359375,0.22265625,2,1,15,76,10,1318.33715820312,402.806640625,0,1,objects,small,0,1,objects,A,small,VS,O,83,J04,344.537109375
0,1,0,28283,2.353515625,0.400390625,3,1,1,2,11,592.752258300781,241.4423828125,0,1,objects,small,0,1,objects,A,small,VS,O,83,J04,344.537109375
0,1,0,28284,2.771484375,0.193359375,4,1,4,13,12,679.32861328125,419.579376220703,0,1,faces,male,0,1,objects,A,small,VS,O,83,J04,344.537109375
0,1,0,28299,1.00390625,0.14453125,1,1,4,16,4,619.872985839844,739.762145996094,0,1,faces,male,0,0,objects,P,small,VS,O,84,J04,348.736328125
0,1,0,28302,1.578125,0.236328125,2,1,12,76,7,1330.31921386719,439.203765869141,0,1,faces,female,0,0,objects,P,small,VS,O,84,J04,348.736328125
0,1,0,28306,2.4609375,0.21875,3,1,11,73,11,1343.38391113281,114.73770904541,0,1,faces,female,0,0,objects,P,small,VS,O,84,J04,348.736328125
0,1,0,28351,0.37890625,0.251953125,1,1,7,23,2,718.461486816406,507.050598144531,0,1,faces,male,0,0,objects,A,small,EX,O,95,J04,394.927734375
0,1,0,28352,0.64453125,0.21484375,2,1,6,15,3,628.246398925781,637.111633300781,0,1,faces,female,0,0,objects,A,small,EX,O,95,J04,394.927734375
0,1,0,28354,1.154296875,0.22265625,3,1,8,25,5,788.282409667969,703.058837890625,0,1,faces,female,0,0,objects,A,small,EX,O,95,J04,394.927734375
0,1,0,28355,1.412109375,0.302734375,4,1,14,54,6,1063.21325683594,896.864196777344,0,1,faces,female,0,0,objects,A,small,EX,O,95,J04,394.927734375
0,1,0,28357,1.98828125,0.2578125,5,0,15,68,8,1246.48767089844,522.753540039062,0,1,objects,big,0,0,objects,A,small,EX,O,95,J04,394.927734375
0,1,0,28359,2.45703125,0.34765625,6,0,4,11,10,677.667297363281,253.129089355469,0,1,faces,male,0,0,objects,A,small,EX,O,95,J04,394.927734375
0,1,0,28361,2.98828125,0.861328125,7,0,9,30,12,869.960693359375,313.358123779297,0,1,faces,male,0,0,objects,A,small,EX,O,95,J04,394.927734375
0,1,0,28372,0.666015625,0.150390625,1,1,4,20,4,740.594421386719,252.301055908203,1,0,NaN,NaN,1,1,objects,P,small,VS,O,96,J04,399.126953125
1,1,0,28380,0.3515625,0.267578125,1,1,6,31,2,875.792175292969,422.165374755859,0,1,faces,male,0,0,faces,A,female,VS,F,97,J04,403.326171875
0,1,0,28381,0.63671875,0.416015625,2,1,5,28,3,823.691589355469,112.532234191895,0,1,objects,big,0,0,faces,A,female,VS,F,97,J04,403.326171875
0,1,0,28382,1.095703125,0.31640625,3,1,11,55,4,1203.2080078125,108.791885375977,0,1,faces,female,0,0,faces,A,female,VS,F,97,J04,403.326171875
0,1,0,28386,1.958984375,0.232421875,4,1,9,43,8,918.220336914062,689.846130371094,0,1,faces,male,0,0,faces,A,female,VS,F,97,J04,403.326171875
2,1,0,28388,2.43359375,0.53125,5,0,6,31,10,872.514343261719,393.787017822266,0,1,faces,male,0,0,faces,A,female,VS,F,97,J04,403.326171875
3,1,0,28391,3.8828125,0.54296875,6,0,6,31,13,848.572265625,415.956237792969,0,1,faces,male,0,0,faces,A,female,VS,F,97,J04,403.326171875
1,0,0,28398,0.27734375,0.20703125,1,1,8,39,1,963.574340820312,320.657470703125,1,0,NaN,NaN,1,1,objects,P,big,VS,O,98,J04,407.525390625
0,0,0,28399,0.509765625,0.134765625,2,1,5,19,2,794.260437011719,183.041854858398,0,1,faces,female,1,1,objects,P,big,VS,O,98,J04,407.525390625
2,0,0,28400,0.6640625,3.74609375,3,1,8,39,3,969.474914550781,305.730072021484,1,0,NaN,NaN,1,1,objects,P,big,VS,O,98,J04,407.525390625
1,1,0,28405,0.24609375,0.734375,1,1,8,40,1,978.818908691406,397.363586425781,0,1,faces,female,0,1,objects,A,big,VS,O,99,J04,411.724609375
1,1,0,28406,1.01953125,0.66015625,2,1,5,11,2,678.624145507812,209.991027832031,0,1,faces,female,0,1,objects,A,big,VS,O,99,J04,411.724609375
2,1,0,28408,1.90234375,0.40234375,3,1,8,40,4,956.359497070312,430.9921875,0,1,faces,female,0,1,objects,A,big,VS,O,99,J04,411.724609375
0,1,0,28409,2.326171875,0.5703125,4,1,6,13,5,694.750671386719,441.72705078125,0,1,faces,female,0,1,objects,A,big,VS,O,99,J04,411.724609375
2,1,0,28410,2.919921875,0.515625,5,0,5,11,6,674.332824707031,204.499588012695,0,1,faces,female,0,1,objects,A,big,VS,O,99,J04,411.724609375
0,1,0,28412,3.751953125,0.556640625,6,0,12,65,8,1273.9521484375,254.030288696289,0,1,objects,big,0,1,objects,A,big,VS,O,99,J04,411.724609375
1,1,1,28420,0.28125,0.181640625,1,1,4,23,2,799.33251953125,521.774108886719,0,1,objects,big,0,1,objects,P,big,VS,O,100,J04,415.923828125
0,1,0,28426,1.50390625,0.193359375,2,1,11,65,8,1301.73754882812,273.586364746094,0,1,faces,male,0,1,objects,P,big,VS,O,100,J04,415.923828125
0,1,0,28428,1.876953125,0.3125,3,1,14,73,10,1383.18286132812,123.007118225098,0,1,objects,small,0,1,objects,P,big,VS,O,100,J04,415.923828125
2,1,0,28429,2.234375,0.453125,4,1,4,23,11,772.186706542969,586.804443359375,0,1,objects,big,0,1,objects,P,big,VS,O,100,J04,415.923828125
0,1,0,28430,2.724609375,0.201171875,5,0,9,48,12,1051.31115722656,308.364837646484,0,1,faces,female,0,1,objects,P,big,VS,O,100,J04,415.923828125
0,1,0,28431,2.9453125,0.1875,6,0,6,31,13,884.831604003906,392.774505615234,0,1,faces,male,0,1,objects,P,big,VS,O,100,J04,415.923828125
0,1,0,28436,0.259765625,0.142578125,1,1,4,32,1,905.561767578125,503.712341308594,1,0,NaN,NaN,1,1,faces,P,male,VS,F,101,J04,420.123046875
0,1,0,28439,0.259765625,0.173828125,1,1,4,14,2,670.567260742188,528.47412109375,0,1,objects,small,0,1,objects,A,small,VS,O,102,J04,424.322265625
0,1,0,28441,1.0234375,0.23828125,2,1,7,27,4,795.359497070312,896.729370117188,0,1,faces,male,0,1,objects,A,small,VS,O,102,J04,424.322265625
0,1,0,28442,1.2734375,0.318359375,3,1,8,35,5,878.76171875,820.258605957031,0,1,objects,small,0,1,objects,A,small,VS,O,102,J04,424.322265625
0,1,0,28445,2.1796875,0.140625,4,1,12,61,8,1144.46728515625,691.121398925781,0,1,faces,female,0,1,objects,A,small,VS,O,102,J04,424.322265625
0,1,0,28447,2.5625,0.21484375,5,0,3,6,10,590.935913085938,596.361877441406,0,1,faces,female,0,1,objects,A,small,VS,O,102,J04,424.322265625
0,1,0,28449,2.962890625,0.208984375,6,0,1,2,12,599.641296386719,248.911865234375,0,1,faces,male,0,1,objects,A,small,VS,O,102,J04,424.322265625
0,1,0,28451,3.384765625,0.123046875,7,0,14,77,14,1331.10595703125,533.635864257812,0,1,faces,male,0,1,objects,A,small,VS,O,102,J04,424.322265625
0,1,1,28452,3.53515625,0.232421875,8,0,11,56,15,1123.50183105469,254.650894165039,0,1,objects,big,0,1,objects,A,small,VS,O,102,J04,424.322265625
0,1,0,28454,3.98828125,0.787109375,9,0,13,71,17,1214.33666992188,889.131958007812,0,1,faces,female,0,1,objects,A,small,VS,O,102,J04,424.322265625
0,1,0,28459,0.193359375,0.306640625,1,1,9,49,1,1025.0302734375,424.696472167969,0,1,faces,female,1,0,faces,P,female,VS,I,103,J04,428.521484375
1,1,0,28460,0.5078125,0.16796875,2,1,8,48,2,1013.60137939453,339.500793457031,0,1,faces,male,1,0,faces,P,female,VS,I,103,J04,428.521484375
0,1,0,28461,0.693359375,0.19140625,3,1,4,37,3,941.052307128906,157.179489135742,0,1,objects,big,1,0,faces,P,female,VS,I,103,J04,428.521484375
1,1,1,28465,1.767578125,0.203125,4,1,6,44,7,934.94921875,830.238891601562,0,1,faces,female,1,0,faces,P,female,VS,I,103,J04,428.521484375
0,1,0,28467,2.158203125,0.197265625,5,0,10,53,9,1094.72814941406,790.9697265625,1,0,NaN,NaN,1,0,faces,P,female,VS,I,103,J04,428.521484375
2,1,0,28468,2.390625,0.21484375,6,0,6,44,10,949.822998046875,863.486145019531,0,1,faces,female,1,0,faces,P,female,VS,I,103,J04,428.521484375
2,1,0,28471,3.26953125,0.427734375,7,0,8,48,13,1085.59008789062,375.905670166016,0,1,faces,male,1,0,faces,P,female,VS,I,103,J04,428.521484375
0,1,0,28483,1.60546875,0.259765625,1,1,3,20,3,769.503173828125,206.047698974609,0,1,faces,male,0,1,faces,A,female,EX,F,104,J04,432.720703125
0,1,0,28485,2.162109375,0.240234375,2,1,11,70,5,1262.38940429688,702.52783203125,0,1,faces,female,0,1,faces,A,female,EX,F,104,J04,432.720703125
0,1,0,28489,3.392578125,0.2265625,3,1,14,80,9,1341.90771484375,868.45263671875,0,1,faces,female,0,1,faces,A,female,EX,F,104,J04,432.720703125
0,1,0,28490,3.626953125,0.353515625,4,1,15,81,10,1399.0419921875,890.964111328125,0,1,faces,male,0,1,faces,A,female,EX,F,104,J04,432.720703125
0,1,1,28500,1.361328125,0.25,1,1,2,7,5,593.011657714844,718.625427246094,0,1,faces,male,1,0,faces,P,female,VS,I,105,J04,436.919921875
0,1,0,28503,2.017578125,0.1953125,2,1,10,60,8,1115.56396484375,593.996887207031,1,0,NaN,NaN,1,0,faces,P,female,VS,I,105,J04,436.919921875
0,1,0,28516,0.64453125,0.359375,1,1,3,37,2,1002.763671875,118.072105407715,0,1,faces,female,0,1,faces,A,male,EX,I,106,J04,441.119140625
0,1,0,28517,1.044921875,0.228515625,2,1,9,59,3,1201.17053222656,510.671325683594,0,1,faces,female,0,1,faces,A,male,EX,I,106,J04,441.119140625
0,1,0,28518,1.291015625,0.22265625,3,1,13,76,4,1372.12915039062,425.112182617188,0,1,faces,male,0,1,faces,A,male,EX,I,106,J04,441.119140625
0,1,0,28522,2.423828125,0.220703125,4,1,10,62,8,1183.15808105469,821.659301757812,0,1,objects,small,0,1,faces,A,male,EX,I,106,J04,441.119140625
0,1,0,28524,3.849609375,0.96484375,5,0,8,58,10,1127.638671875,481.276184082031,0,1,faces,female,0,1,faces,A,male,EX,I,106,J04,441.119140625
0,1,0,28530,0.345703125,0.16796875,1,1,5,22,1,738.194213867188,467.520935058594,0,1,faces,male,0,1,objects,P,big,VS,O,107,J04,445.318359375
0,1,0,28545,2.87109375,0.181640625,1,1,15,79,8,1312.66149902344,708.317138671875,1,0,NaN,NaN,1,0,faces,P,female,VS,F,108,J04,449.517578125
0,1,1,28564,2.220703125,0.294921875,1,1,8,49,6,1066.5390625,467.577392578125,0,1,faces,male,0,1,faces,A,female,EX,I,109,J04,453.716796875
0,1,0,28592,0.025390625,0.171875,1,1,5,20,1,803.258544921875,269.289489746094,0,1,objects,big,0,1,faces,A,female,VS,I,111,J04,462.115234375
0,1,0,28601,2.78125,0.263671875,2,1,9,61,10,1186.39709472656,757.851989746094,0,1,faces,male,0,1,faces,A,female,VS,I,111,J04,462.115234375
0,1,0,28625,0.287109375,0.23828125,1,1,11,49,2,1032.40515136719,425.995056152344,0,1,objects,big,0,0,faces,P,female,VS,I,113,J04,470.513671875
0,1,0,28630,1.564453125,0.25390625,2,1,2,12,7,613.426086425781,299.683319091797,0,1,objects,big,0,0,faces,P,female,VS,I,113,J04,470.513671875
0,1,0,28648,3.26171875,0.17578125,1,1,7,29,6,877.376281738281,192.147811889648,0,1,faces,male,0,1,faces,A,male,VS,I,114,J04,474.712890625
0,1,0,28661,0.2265625,0.232421875,1,1,7,40,1,996.942443847656,436.315032958984,0,1,objects,small,0,0,faces,P,male,VS,I,115,J04,478.912109375
0,1,0,28667,1.68359375,0.220703125,2,1,3,8,7,603.162353515625,824.41064453125,0,1,faces,male,0,0,faces,P,male,VS,I,115,J04,478.912109375
0,1,0,28668,1.951171875,0.205078125,3,1,4,11,8,634.622192382812,223.922103881836,0,1,objects,big,0,0,faces,P,male,VS,I,115,J04,478.912109375
0,1,0,28669,2.1640625,0.525390625,4,1,1,1,9,595.7900390625,181.27131652832,0,1,faces,male,0,0,faces,P,male,VS,I,115,J04,478.912109375
0,1,1,28672,3.23828125,0.22265625,5,0,13,73,12,1322.4326171875,91.4844360351562,0,1,objects,big,0,0,faces,P,male,VS,I,115,J04,478.912109375
0,1,0,28697,0.380859375,0.337890625,1,1,6,31,4,840.011291503906,406.372009277344,0,1,objects,small,0,1,faces,A,male,EX,F,116,J04,483.111328125
0,1,0,28699,1.13671875,0.23046875,2,1,13,64,6,1265.78100585938,132.184036254883,0,1,faces,male,0,1,faces,A,male,EX,F,116,J04,483.111328125
0,1,0,28703,2.1953125,0.291015625,3,1,10,58,10,1158.70971679688,417.668060302734,0,1,faces,male,0,1,faces,A,male,EX,F,116,J04,483.111328125
0,1,0,28705,2.8515625,0.55859375,4,1,8,44,12,982.379821777344,824.090881347656,0,1,faces,female,0,1,faces,A,male,EX,F,116,J04,483.111328125
0,1,1,28706,3.455078125,0.283203125,5,0,4,22,13,764.212768554688,425.213928222656,0,1,faces,female,0,1,faces,A,male,EX,F,116,J04,483.111328125
1,1,0,28717,0.39453125,0.21875,1,1,10,25,2,760.017272949219,705.455078125,0,1,objects,small,0,0,faces,P,female,VS,F,117,J04,487.310546875
0,1,0,28718,0.625,0.197265625,2,1,6,16,3,705.784118652344,757.836791992188,0,1,faces,female,0,0,faces,P,female,VS,F,117,J04,487.310546875
0,1,0,28719,0.841796875,0.36328125,3,1,2,8,4,603.532653808594,810.183776855469,0,1,faces,female,0,0,faces,P,female,VS,F,117,J04,487.310546875
2,1,1,28720,1.23046875,0.1328125,4,1,10,25,5,763.179443359375,730.030700683594,0,1,objects,small,0,0,faces,P,female,VS,F,117,J04,487.310546875
0,1,0,28725,2.248046875,0.21875,5,0,11,31,10,829.106567382812,454.964599609375,0,1,faces,male,0,0,faces,P,female,VS,F,117,J04,487.310546875
0,1,0,28742,0.203125,0.224609375,1,1,6,13,1,648.02880859375,487.183471679688,0,1,faces,female,0,1,faces,P,male,VS,F,118,J04,491.509765625
0,1,0,28743,0.435546875,0.171875,2,1,5,12,2,669.958862304688,354.019165039062,0,1,faces,female,0,1,faces,P,male,VS,F,118,J04,491.509765625
0,1,0,28744,0.6171875,0.4921875,3,1,4,11,3,690.283081054688,258.082550048828,0,1,faces,male,0,1,faces,P,male,VS,F,118,J04,491.509765625
0,1,0,28747,1.501953125,0.166015625,4,1,9,34,6,826.403198242188,719.159301757812,0,1,objects,big,0,1,faces,P,male,VS,F,118,J04,491.509765625
0,1,0,28748,1.71484375,0.361328125,5,0,11,58,7,1195.30029296875,421.562377929688,0,1,faces,female,0,1,faces,P,male,VS,F,118,J04,491.509765625
0,1,0,28756,0.23046875,0.224609375,1,1,5,14,1,694.549621582031,509.61376953125,0,1,objects,small,1,1,faces,P,female,VS,F,119,J04,495.708984375
0,1,0,28757,0.4765625,0.322265625,2,1,2,4,2,596.984985351562,400.623199462891,0,1,faces,female,1,1,faces,P,female,VS,F,119,J04,495.708984375
0,1,0,28758,0.837890625,0.255859375,3,1,11,43,3,938.932861328125,761.554382324219,0,1,faces,female,1,1,faces,P,female,VS,F,119,J04,495.708984375
0,1,0,28759,1.107421875,0.240234375,4,1,10,34,4,893.422180175781,745.407165527344,0,1,faces,female,1,1,faces,P,female,VS,F,119,J04,495.708984375
0,0,0,28760,1.375,3.068359375,5,0,4,7,5,589.761840820312,727.941650390625,1,0,NaN,NaN,1,1,faces,P,female,VS,F,119,J04,495.708984375
0,1,0,28768,0.171875,0.193359375,1,1,9,40,1,925.013244628906,442.119384765625,0,1,faces,male,0,0,objects,A,small,EX,O,120,J04,499.908203125
0,1,0,28770,0.591796875,0.123046875,2,1,4,13,3,673.965209960938,395.740142822266,0,1,faces,female,0,0,objects,A,small,EX,O,120,J04,499.908203125
0,1,0,28773,1.21484375,0.154296875,3,1,3,8,6,570.435546875,793.518981933594,0,1,faces,male,0,0,objects,A,small,EX,O,120,J04,499.908203125
0,1,0,28776,2.0703125,0.447265625,4,1,12,60,9,1208.09692382812,604.637939453125,0,1,faces,female,0,0,objects,A,small,EX,O,120,J04,499.908203125
0,1,0,28779,3.3125,0.484375,5,0,13,63,12,1209.52014160156,969.531372070312,0,1,objects,big,0,0,objects,A,small,EX,O,120,J04,499.908203125
0,1,0,28780,3.828125,0.2109375,6,0,10,41,13,996.836975097656,506.437103271484,0,1,faces,male,0,0,objects,A,small,EX,O,120,J04,499.908203125
0,1,0,28784,0.35546875,0.173828125,1,1,5,28,1,860.080993652344,151.840942382812,0,1,objects,big,0,1,objects,A,small,VS,O,121,J04,504.107421875
0,1,0,28786,0.7578125,0.26171875,2,1,10,55,3,1187.1171875,143.357330322266,0,1,objects,small,0,1,objects,A,small,VS,O,121,J04,504.107421875
0,1,0,28790,1.80078125,0.14453125,3,1,9,54,7,1065.98937988281,967.24755859375,0,1,faces,female,0,1,objects,A,small,VS,O,121,J04,504.107421875
0,1,0,28792,2.236328125,0.12890625,4,1,12,65,9,1270.04431152344,222.682403564453,0,1,faces,female,0,1,objects,A,small,VS,O,121,J04,504.107421875
0,1,0,28799,3.73828125,0.142578125,5,0,4,24,16,711.607116699219,624.035888671875,0,1,objects,big,0,1,objects,A,small,VS,O,121,J04,504.107421875
1,1,0,28802,0.212890625,0.283203125,1,1,7,32,1,864.690307617188,513.000244140625,0,1,faces,male,0,0,faces,A,female,VS,F,122,J04,508.306640625
0,1,0,28803,0.509765625,0.345703125,2,1,5,22,2,760.094482421875,466.331207275391,0,1,faces,female,0,0,faces,A,female,VS,F,122,J04,508.306640625
2,1,0,28804,0.873046875,0.208984375,3,1,7,32,3,869.920654296875,530.926818847656,0,1,faces,male,0,0,faces,A,female,VS,F,122,J04,508.306640625
0,1,1,28805,1.1171875,0.142578125,4,1,2,8,4,601.777099609375,834.817077636719,0,1,faces,male,0,0,faces,A,female,VS,F,122,J04,508.306640625
0,1,0,28807,1.44921875,0.201171875,5,0,6,25,6,801.086669921875,751.62841796875,0,1,objects,big,0,0,faces,A,female,VS,F,122,J04,508.306640625
0,1,0,28808,1.666015625,0.232421875,6,0,8,34,7,872.314208984375,741.230041503906,0,1,faces,female,0,0,faces,A,female,VS,F,122,J04,508.306640625
0,1,1,28809,1.951171875,0.1640625,7,0,15,81,8,1365.2412109375,920.193054199219,0,1,objects,small,0,0,faces,A,female,VS,F,122,J04,508.306640625
0,1,0,28811,2.193359375,0.2109375,8,0,14,70,10,1295.45251464844,751.024536132812,0,1,faces,female,0,0,faces,A,female,VS,F,122,J04,508.306640625
1,1,0,28812,2.4375,0.22265625,9,0,13,66,11,1290.16430664062,303.048797607422,0,1,objects,big,0,0,faces,A,female,VS,F,122,J04,508.306640625
0,1,0,28813,2.697265625,0.306640625,10,0,10,38,12,1007.16552734375,256.673522949219,0,1,faces,male,0,0,faces,A,female,VS,F,122,J04,508.306640625
2,1,0,28814,3.03125,0.333984375,11,0,13,66,13,1301.462890625,297.370788574219,0,1,objects,big,0,0,faces,A,female,VS,F,122,J04,508.306640625
0,1,0,28818,0.447265625,0.21484375,1,1,5,23,2,711.598205566406,569.575012207031,0,1,faces,female,1,1,objects,P,small,VS,O,123,J04,512.505859375
0,1,0,28819,0.681640625,0.240234375,2,1,2,12,3,661.436462402344,292.975463867188,0,1,faces,female,1,1,objects,P,small,VS,O,123,J04,512.505859375
1,0,1,28820,0.96484375,0.23828125,3,1,8,47,4,1038.93640136719,246.450302124023,1,0,NaN,NaN,1,1,objects,P,small,VS,O,123,J04,512.505859375
0,0,0,28822,2.8203125,0.48046875,4,1,7,38,6,989.444641113281,275.861480712891,0,1,faces,female,1,1,objects,P,small,VS,O,123,J04,512.505859375
2,0,0,28823,3.314453125,0.974609375,5,0,8,47,7,1083.08728027344,269.215118408203,1,0,NaN,NaN,1,1,objects,P,small,VS,O,123,J04,512.505859375
0,1,0,28831,0.486328125,0.181640625,1,1,2,7,3,589.252685546875,720.851501464844,0,1,faces,male,1,1,objects,P,small,VS,O,124,J04,516.705078125
0,1,0,28832,0.705078125,0.326171875,2,1,8,44,4,999.398193359375,864.357116699219,0,1,objects,big,1,1,objects,P,small,VS,O,124,J04,516.705078125
0,0,0,28833,1.046875,1.38671875,3,1,11,54,5,1089.40551757812,959.122253417969,1,0,NaN,NaN,1,1,objects,P,small,VS,O,124,J04,516.705078125
0,1,0,28837,0.873046875,0.232421875,1,1,8,30,4,874.785095214844,305.488159179688,0,1,faces,female,0,1,faces,A,male,VS,I,125,J04,520.904296875
0,1,1,28839,1.501953125,0.16796875,2,1,13,65,6,1230.30505371094,283.178619384766,0,1,faces,male,0,1,faces,A,male,VS,I,125,J04,520.904296875
0,1,1,28841,1.908203125,0.171875,3,1,9,33,8,901.113830566406,606.869079589844,0,1,faces,male,0,1,faces,A,male,VS,I,125,J04,520.904296875
0,1,0,28843,2.275390625,0.2265625,4,1,7,23,10,747.102111816406,516.363342285156,0,1,faces,male,0,1,faces,A,male,VS,I,125,J04,520.904296875
1,1,1,28844,2.51953125,0.28515625,5,0,2,7,11,597.691040039062,701.415161132812,0,1,faces,female,0,1,faces,A,male,VS,I,125,J04,520.904296875
0,1,0,28846,3.005859375,0.314453125,6,0,5,17,13,632.916442871094,817.911987304688,0,1,faces,female,0,1,faces,A,male,VS,I,125,J04,520.904296875
2,1,0,28847,3.3359375,0.279296875,7,0,2,7,14,528.059143066406,762.579284667969,0,1,faces,female,0,1,faces,A,male,VS,I,125,J04,520.904296875
0,1,0,28850,1.072265625,0.533203125,1,1,10,56,1,1179.72778320312,265.551116943359,0,1,objects,small,0,1,faces,A,female,EX,I,126,J04,525.103515625
0,1,0,28851,1.640625,0.546875,2,1,13,61,2,1186.04113769531,745.208679199219,0,1,faces,female,0,1,faces,A,female,EX,I,126,J04,525.103515625
0,1,0,28861,0.875,0.806640625,1,1,3,5,5,570.402038574219,502.432556152344,0,1,objects,big,0,1,objects,A,big,EX,O,127,J04,529.302734375
0,1,0,28862,1.689453125,0.146484375,2,1,4,6,6,578.544616699219,657.976379394531,0,1,objects,small,0,1,objects,A,big,EX,O,127,J04,529.302734375
0,1,0,28863,2.404296875,0.62109375,3,1,10,44,7,981.618225097656,843.392028808594,0,1,faces,male,0,1,objects,A,big,EX,O,127,J04,529.302734375
0,1,0,28864,3.26953125,0.677734375,4,1,13,77,8,1383.40686035156,515.578369140625,0,1,objects,big,0,1,objects,A,big,EX,O,127,J04,529.302734375
0,1,0,28881,0.638671875,1.439453125,1,1,2,2,1,601.065490722656,197.641723632812,0,1,faces,male,1,1,faces,P,male,VS,I,129,J04,537.701171875
0,1,0,28882,2.1171875,0.18359375,2,1,6,47,2,1043.66467285156,275.947540283203,1,0,NaN,NaN,1,1,faces,P,male,VS,I,129,J04,537.701171875
0,1,0,28884,3.013671875,0.294921875,3,1,3,15,4,660.150756835938,670.652282714844,0,1,faces,female,1,1,faces,P,male,VS,I,129,J04,537.701171875
1,1,0,28885,3.37890625,0.208984375,4,1,14,77,5,1331.75891113281,563.279724121094,0,1,faces,female,1,1,faces,P,male,VS,I,129,J04,537.701171875
0,1,0,28886,3.6015625,0.134765625,5,0,12,68,6,1268.85217285156,580.764770507812,0,1,faces,male,1,1,faces,P,male,VS,I,129,J04,537.701171875
2,1,0,28887,3.751953125,0.234375,6,0,14,77,7,1371.24035644531,552.461791992188,0,1,faces,female,1,1,faces,P,male,VS,I,129,J04,537.701171875
0,1,0,28891,2.28515625,0.375,1,1,12,65,4,1278.10876464844,211.817337036133,0,1,faces,female,0,1,faces,P,female,VS,I,130,J04,541.900390625
0,1,0,28909,0.478515625,0.158203125,1,1,3,22,3,734.146728515625,486.175933837891,0,1,faces,male,0,1,faces,A,male,EX,F,131,J04,546.099609375
0,1,0,28911,0.953125,0.376953125,2,1,5,25,5,799.992126464844,699.057495117188,0,1,faces,male,0,1,faces,A,male,EX,F,131,J04,546.099609375
0,1,0,28912,1.3515625,0.240234375,3,1,2,16,6,702.208557128906,744.951232910156,0,1,faces,female,0,1,faces,A,male,EX,F,131,J04,546.099609375
0,1,0,28913,1.640625,0.185546875,4,1,11,69,7,1285.53918457031,596.891967773438,0,1,objects,small,0,1,faces,A,male,EX,F,131,J04,546.099609375
0,1,0,28914,1.833984375,0.3203125,5,0,10,68,8,1301.20336914062,584.121398925781,0,1,faces,female,0,1,faces,A,male,EX,F,131,J04,546.099609375
1,1,0,28916,2.353515625,0.181640625,6,0,9,48,10,1041.31042480469,370.118896484375,0,1,faces,female,0,1,faces,A,male,EX,F,131,J04,546.099609375
0,1,0,28917,2.544921875,0.3203125,7,0,6,39,11,997.445007324219,390.203796386719,0,1,faces,female,0,1,faces,A,male,EX,F,131,J04,546.099609375
2,1,0,28918,2.87890625,0.78515625,8,0,9,48,12,1075.59143066406,379.391632080078,0,1,faces,female,0,1,faces,A,male,EX,F,131,J04,546.099609375
0,1,0,28919,3.705078125,0.51953125,9,0,13,74,13,1372.62036132812,289.822906494141,0,1,faces,male,0,1,faces,A,male,EX,F,131,J04,546.099609375
0,1,0,28930,0.9140625,0.30859375,1,1,8,50,3,1092.7216796875,524.60107421875,0,1,faces,female,0,1,faces,P,female,VS,F,132,J04,550.298828125
0,1,0,28931,1.265625,0.212890625,2,1,13,67,4,1212.48754882812,444.198516845703,0,1,objects,big,0,1,faces,P,female,VS,F,132,J04,550.298828125
0,1,1,28932,1.51953125,0.21875,3,1,4,29,5,819.09716796875,281.855316162109,0,1,objects,small,0,1,faces,P,female,VS,F,132,J04,550.298828125
0,1,0,28934,1.982421875,0.19921875,4,1,1,10,7,692.316040039062,146.012268066406,0,1,faces,male,0,1,faces,P,female,VS,F,132,J04,550.298828125
0,1,1,28942,0.185546875,0.181640625,1,1,12,51,1,1048.3232421875,594.693298339844,0,1,faces,male,0,1,faces,A,male,EX,I,133,J04,554.498046875
0,1,1,28944,1.564453125,0.41015625,2,1,2,12,3,693.316223144531,371.008209228516,0,1,faces,female,0,1,faces,A,male,EX,I,133,J04,554.498046875
0,1,0,28946,3.55078125,0.50390625,3,1,8,43,5,952.777282714844,719.329711914062,0,1,faces,female,0,1,faces,A,male,EX,I,133,J04,554.498046875
1,0,0,28951,0.671875,0.375,1,1,7,24,1,781.513610839844,623.362731933594,1,0,NaN,NaN,1,0,faces,P,female,VS,I,134,J04,558.697265625
1,0,0,28952,1.05859375,0.166015625,2,1,6,21,2,804.459716796875,369.822784423828,0,1,faces,female,1,0,faces,P,female,VS,I,134,J04,558.697265625
0,0,0,28953,1.26171875,0.212890625,3,1,1,2,3,599.13671875,221.742080688477,0,1,objects,small,1,0,faces,P,female,VS,I,134,J04,558.697265625
2,0,1,28954,1.501953125,0.17578125,4,1,6,21,4,752.763610839844,309.224395751953,0,1,faces,female,1,0,faces,P,female,VS,I,134,J04,558.697265625
0,0,0,28956,1.939453125,0.318359375,5,0,13,67,6,1274.87854003906,462.218353271484,0,1,faces,male,1,0,faces,P,female,VS,I,134,J04,558.697265625
0,0,1,28957,2.306640625,0.15234375,6,0,3,8,7,591.445373535156,808.3583984375,0,1,faces,female,1,0,faces,P,female,VS,I,134,J04,558.697265625
0,0,0,28960,2.857421875,0.2421875,7,0,11,45,10,987.486022949219,949.171752929688,0,1,faces,female,1,0,faces,P,female,VS,I,134,J04,558.697265625
0,0,0,28961,3.125,0.173828125,8,0,9,35,11,861.137268066406,867.465942382812,0,1,faces,male,1,0,faces,P,female,VS,I,134,J04,558.697265625
2,0,0,28962,3.3203125,0.392578125,9,0,7,24,12,779.750183105469,651.72119140625,1,0,NaN,NaN,1,0,faces,P,female,VS,I,134,J04,558.697265625
0,0,0,28964,3.91015625,0.2890625,10,0,15,79,14,1355.77526855469,775.771484375,0,1,faces,female,1,0,faces,P,female,VS,I,134,J04,558.697265625
1,1,0,28988,0.212890625,0.40234375,1,1,4,23,1,755.69384765625,499.6064453125,0,1,faces,female,0,1,faces,A,female,VS,I,136,J04,567.095703125
2,1,0,28990,0.951171875,0.20703125,2,1,4,23,3,746.682800292969,528.759521484375,0,1,faces,female,0,1,faces,A,female,VS,I,136,J04,567.095703125
0,1,0,28991,1.166015625,0.177734375,3,1,5,24,4,778.708618164062,645.687133789062,0,1,faces,female,0,1,faces,A,female,VS,I,136,J04,567.095703125
0,1,0,28992,2.11328125,0.189453125,4,1,12,60,5,1167.05737304688,615.3828125,0,1,faces,female,0,1,faces,A,female,VS,I,136,J04,567.095703125
0,1,0,28993,2.318359375,0.130859375,5,0,10,51,6,1073.03369140625,686.385498046875,0,1,faces,male,0,1,faces,A,female,VS,I,136,J04,567.095703125
0,1,0,28994,2.486328125,0.275390625,6,0,15,76,7,1380.88012695312,442.034576416016,0,1,faces,male,0,1,faces,A,female,VS,I,136,J04,567.095703125
0,1,0,28999,3.51953125,0.255859375,7,0,8,37,12,967.356384277344,175.693313598633,0,1,objects,big,0,1,faces,A,female,VS,I,136,J04,567.095703125
0,1,0,29007,0.28125,0.240234375,1,1,2,7,1,552.182800292969,726.558288574219,0,1,objects,big,1,1,objects,P,small,VS,O,137,J04,571.294921875
1,1,1,29008,0.55859375,0.19921875,2,1,5,32,2,882.0302734375,580.302001953125,0,1,objects,small,1,1,objects,P,small,VS,O,137,J04,571.294921875
0,1,1,29010,1.154296875,0.203125,3,1,13,70,4,1235.54223632812,716.344055175781,0,1,faces,male,1,1,objects,P,small,VS,O,137,J04,571.294921875
2,1,1,29012,1.599609375,0.2421875,4,1,5,32,6,825.051513671875,523.793884277344,0,1,objects,small,1,1,objects,P,small,VS,O,137,J04,571.294921875
0,0,0,29014,2.041015625,1.591796875,5,0,7,37,8,942.368530273438,184.524978637695,1,0,NaN,NaN,1,1,objects,P,small,VS,O,137,J04,571.294921875
0,0,0,29016,3.833984375,0.4375,6,0,4,11,10,673.76611328125,228.559844970703,0,1,faces,male,1,1,objects,P,small,VS,O,137,J04,571.294921875
0,1,0,29027,0.7109375,0.87109375,1,1,3,14,4,651.574951171875,512.738525390625,0,1,faces,female,1,1,faces,P,male,VS,I,138,J04,575.494140625
0,0,0,29029,1.966796875,0.873046875,2,1,5,32,6,878.660095214844,536.631652832031,1,0,NaN,NaN,1,1,faces,P,male,VS,I,138,J04,575.494140625
0,0,0,29032,3.408203125,0.19921875,3,1,15,73,9,1339.02722167969,184.374496459961,0,1,faces,female,1,1,faces,P,male,VS,I,138,J04,575.494140625
0,0,0,29033,3.677734375,0.568359375,4,1,2,10,10,673.990783691406,182.452880859375,0,1,faces,male,1,1,faces,P,male,VS,I,138,J04,575.494140625
0,1,0,29047,0.77734375,0.244140625,1,1,10,65,5,1225.17749023438,287.427825927734,0,1,faces,male,0,0,objects,A,big,VS,O,139,J04,579.693359375
0,1,0,29049,1.236328125,0.234375,2,1,3,10,7,705.827087402344,129.673431396484,0,1,objects,big,0,0,objects,A,big,VS,O,139,J04,579.693359375
0,1,0,29050,1.498046875,0.8046875,3,1,6,40,8,952.631225585938,474.20068359375,0,1,objects,big,0,0,objects,A,big,VS,O,139,J04,579.693359375
0,1,0,29051,2.337890625,0.34765625,4,1,9,63,9,1145.90197753906,963.903015136719,0,1,faces,female,0,0,objects,A,big,VS,O,139,J04,579.693359375
0,1,0,29053,2.771484375,0.21875,5,0,8,53,11,1084.55432128906,853.567443847656,0,1,objects,big,0,0,objects,A,big,VS,O,139,J04,579.693359375
0,1,0,29054,3.0078125,0.322265625,6,0,11,72,12,1282.68395996094,956.173034667969,0,1,faces,female,0,0,objects,A,big,VS,O,139,J04,579.693359375
0,1,0,29055,3.349609375,0.291015625,7,0,14,79,13,1382.06066894531,771.789733886719,0,1,faces,male,0,0,objects,A,big,VS,O,139,J04,579.693359375
0,1,0,29056,3.654296875,0.27734375,8,0,13,78,14,1386.41198730469,642.189636230469,0,1,faces,female,0,0,objects,A,big,VS,O,139,J04,579.693359375
0,1,0,29064,1.64453125,0.46484375,1,1,11,65,3,1242.021484375,205.370193481445,0,1,objects,big,0,0,faces,A,male,VS,F,140,J04,583.892578125
0,1,0,29065,2.125,0.458984375,2,1,8,57,4,1129.50903320312,294.836822509766,0,1,faces,male,0,0,faces,A,male,VS,F,140,J04,583.892578125
0,1,0,29067,3.138671875,0.193359375,3,1,4,32,6,854.495056152344,530.789001464844,0,1,faces,female,0,0,faces,A,male,VS,F,140,J04,583.892578125
0,1,0,29069,3.796875,1.91015625,4,1,3,29,8,878.007568359375,264.189208984375,0,1,faces,male,0,0,faces,A,male,VS,F,140,J04,583.892578125
0,1,0,29075,0.1796875,0.150390625,1,1,8,42,1,926.033874511719,615.93359375,0,1,objects,big,1,1,faces,P,male,VS,F,141,J04,588.091796875
0,1,0,29081,1.826171875,0.380859375,2,1,12,47,7,1016.73999023438,264.586578369141,0,1,faces,male,1,1,faces,P,male,VS,F,141,J04,588.091796875
0,1,0,29083,2.40625,0.142578125,3,1,11,45,9,938.477722167969,893.184387207031,0,1,objects,small,1,1,faces,P,male,VS,F,141,J04,588.091796875
0,1,0,29084,2.55859375,0.255859375,4,1,10,44,10,925.656005859375,814.216125488281,0,1,faces,female,1,1,faces,P,male,VS,F,141,J04,588.091796875
1,0,0,29085,2.82421875,0.26953125,5,0,9,43,11,924.619445800781,715.564453125,1,0,NaN,NaN,1,1,faces,P,male,VS,F,141,J04,588.091796875
0,0,0,29086,3.115234375,0.205078125,6,0,4,16,12,704.627136230469,712.428100585938,0,1,faces,female,1,1,faces,P,male,VS,F,141,J04,588.091796875
2,0,0,29087,3.337890625,0.904296875,7,0,9,43,13,950.287841796875,718.574645996094,1,0,NaN,NaN,1,1,faces,P,male,VS,F,141,J04,588.091796875
0,1,1,29099,0.6953125,0.279296875,1,1,3,16,3,650.343627929688,699.169189453125,0,1,objects,big,0,0,faces,P,female,VS,F,142,J04,592.291015625
0,1,0,29101,1.1796875,0.35546875,2,1,1,8,5,512.781982421875,838.78564453125,0,1,faces,male,0,0,faces,P,female,VS,F,142,J04,592.291015625
0,1,0,29102,1.572265625,0.333984375,3,1,5,27,6,759.263000488281,910.399963378906,0,1,faces,male,0,0,faces,P,female,VS,F,142,J04,592.291015625
0,1,0,29106,2.5078125,0.255859375,4,1,12,55,10,1148.57946777344,183.667770385742,0,1,faces,female,0,0,faces,P,female,VS,F,142,J04,592.291015625
0,1,1,29107,2.783203125,0.193359375,5,0,15,75,11,1339.74389648438,348.607879638672,0,1,faces,female,0,0,faces,P,female,VS,F,142,J04,592.291015625
0,1,0,29109,3.349609375,0.34765625,6,0,8,48,13,1063.63061523438,375.654937744141,0,1,faces,male,0,0,faces,P,female,VS,F,142,J04,592.291015625
0,1,1,29238,0.267578125,0.265625,1,1,5,41,2,964.233215332031,512.83837890625,0,1,faces,female,1,1,faces,P,female,VS,I,143,J04,596.490234375
0,1,0,29239,0.5546875,0.3671875,2,1,2,11,3,705.304748535156,230.6328125,0,1,objects,big,1,1,faces,P,female,VS,I,143,J04,596.490234375
0,1,0,29240,0.9375,0.1640625,3,1,4,21,4,790.626647949219,325.276062011719,0,1,faces,female,1,1,faces,P,female,VS,I,143,J04,596.490234375
1,0,1,29241,1.138671875,0.2265625,4,1,7,47,5,1107.6884765625,216.041137695312,1,0,NaN,NaN,1,1,faces,P,female,VS,I,143,J04,596.490234375
0,0,0,29243,2.455078125,0.18359375,5,0,13,73,7,1353.82299804688,188.486679077148,0,1,faces,male,1,1,faces,P,female,VS,I,143,J04,596.490234375
0,0,0,29244,2.65234375,0.412109375,6,0,10,65,8,1283.96740722656,271.971435546875,0,1,faces,male,1,1,faces,P,female,VS,I,143,J04,596.490234375
2,0,0,29245,3.08203125,1.16796875,7,0,7,47,9,1089.90991210938,264.285369873047,1,0,NaN,NaN,1,1,faces,P,female,VS,I,143,J04,596.490234375
0,1,0,29252,0.19140625,0.72265625,1,1,8,32,1,878.060302734375,517.546936035156,0,1,faces,female,0,1,faces,A,female,VS,I,144,J04,600.689453125
0,1,0,29253,0.95703125,0.3046875,2,1,12,75,2,1369.99768066406,290.125457763672,0,1,faces,female,0,1,faces,A,female,VS,I,144,J04,600.689453125
0,1,0,29257,2.064453125,0.18359375,3,1,1,1,6,596.56201171875,169.176727294922,0,1,faces,male,0,1,faces,A,female,VS,I,144,J04,600.689453125
0,1,0,29260,2.638671875,0.16796875,4,1,6,27,9,773.375915527344,921.973754882812,0,1,faces,male,0,1,faces,A,female,VS,I,144,J04,600.689453125
0,1,0,29261,2.822265625,0.171875,5,0,3,17,10,676.116271972656,834.176940917969,0,1,faces,female,0,1,faces,A,female,VS,I,144,J04,600.689453125
0,1,0,29263,3.19921875,0.21484375,6,0,11,63,12,1194.23693847656,897.500183105469,0,1,faces,male,0,1,faces,A,female,VS,I,144,J04,600.689453125
0,1,0,29264,3.439453125,0.171875,7,0,14,80,13,1363.78930664062,793.984924316406,0,1,objects,small,0,1,faces,A,female,VS,I,144,J04,600.689453125
0,1,0,29265,3.65234375,0.1875,8,0,10,50,14,1020.06048583984,546.60595703125,0,1,faces,male,0,1,faces,A,female,VS,I,144,J04,600.689453125
0,1,1,29272,0.330078125,0.224609375,1,1,6,23,2,781.16455078125,503.916107177734,0,1,faces,female,1,1,objects,P,small,VS,O,145,J04,604.888671875
0,0,1,29274,1.166015625,0.279296875,2,1,7,24,4,779.382446289062,606.619567871094,1,0,NaN,NaN,1,1,objects,P,small,VS,O,145,J04,604.888671875
0,1,0,29285,0.1953125,0.158203125,1,1,9,32,1,834.484680175781,545.313781738281,0,1,faces,female,1,1,faces,P,male,VS,I,146,J04,609.087890625
0,1,0,29286,0.365234375,0.197265625,2,1,6,24,2,761.0419921875,599.952026367188,0,1,faces,female,1,1,faces,P,male,VS,I,146,J04,609.087890625
1,0,0,29288,1.015625,0.31640625,3,1,10,39,4,951.954956054688,333.773864746094,1,0,NaN,NaN,1,1,faces,P,male,VS,I,146,J04,609.087890625
0,0,0,29289,1.341796875,0.19921875,4,1,8,29,5,907.064697265625,258.845947265625,0,1,faces,female,1,1,faces,P,male,VS,I,146,J04,609.087890625
0,0,0,29290,1.57421875,0.251953125,5,0,12,58,6,1177.15307617188,487.775726318359,0,1,objects,big,1,1,faces,P,male,VS,I,146,J04,609.087890625
0,0,0,29292,2.08984375,0.212890625,6,0,13,59,8,1207.57946777344,504.848510742188,0,1,faces,female,1,1,faces,P,male,VS,I,146,J04,609.087890625
2,0,1,29293,2.353515625,0.1953125,7,0,10,39,9,955.352722167969,353.038269042969,1,0,NaN,NaN,1,1,faces,P,male,VS,I,146,J04,609.087890625
1,1,0,29302,0.44921875,0.146484375,1,1,7,32,2,834.182739257812,530.410339355469,0,1,faces,female,1,1,faces,P,female,VS,F,147,J04,613.287109375
1,0,0,29303,0.603515625,1.53515625,2,1,6,23,3,800.972778320312,531.932495117188,1,0,NaN,NaN,1,1,faces,P,female,VS,F,147,J04,613.287109375
0,0,0,29305,2.43359375,0.15234375,3,1,10,57,5,1174.07360839844,334.341094970703,0,1,objects,small,1,1,faces,P,female,VS,F,147,J04,613.287109375
0,0,0,29306,2.6015625,0.17578125,4,1,11,59,6,1187.15185546875,508.773010253906,0,1,faces,female,1,1,faces,P,female,VS,F,147,J04,613.287109375
2,0,0,29309,3.47265625,0.197265625,5,0,7,32,9,814.858154296875,584.226928710938,0,1,faces,female,1,1,faces,P,female,VS,F,147,J04,613.287109375
2,0,0,29310,3.677734375,0.12890625,6,0,6,23,10,787.237487792969,582.993713378906,1,0,NaN,NaN,1,1,faces,P,female,VS,F,147,J04,613.287109375
0,0,0,29311,3.8359375,0.439453125,7,0,2,5,11,604.614013671875,580.460876464844,0,1,faces,male,1,1,faces,P,female,VS,F,147,J04,613.287109375
0,1,0,29319,0.1953125,0.177734375,1,1,4,22,1,792.486755371094,411.182098388672,0,1,faces,female,0,1,objects,P,big,VS,O,148,J04,617.486328125
0,1,0,29320,0.408203125,4.01953125,2,1,1,2,2,609.000366210938,276.683624267578,0,1,faces,female,0,1,objects,P,big,VS,O,148,J04,617.486328125
0,1,0,29329,0.283203125,0.1640625,1,1,6,30,1,828.110107421875,346.762298583984,0,1,objects,small,0,1,objects,A,big,EX,O,149,J04,621.685546875
0,1,0,29330,0.458984375,0.28515625,2,1,4,22,2,761.039123535156,393.875915527344,0,1,faces,female,0,1,objects,A,big,EX,O,149,J04,621.685546875
0,1,0,29331,0.78125,0.224609375,3,1,1,1,3,586.078857421875,180.385177612305,0,1,faces,male,0,1,objects,A,big,EX,O,149,J04,621.685546875
0,1,0,29332,1.013671875,0.880859375,4,1,2,3,4,595.027587890625,294.613739013672,0,1,faces,female,0,1,objects,A,big,EX,O,149,J04,621.685546875
1,1,0,29336,3.11328125,0.15234375,5,0,8,41,8,939.650512695312,579.552185058594,0,1,faces,male,0,1,objects,A,big,EX,O,149,J04,621.685546875
2,1,0,29338,3.638671875,0.271484375,6,0,8,41,10,1009.39489746094,585.674438476562,0,1,faces,male,0,1,objects,A,big,EX,O,149,J04,621.685546875
