refix,pretarget,multifix,urevent,tonset,dur_added,rank,first_rank,stposrel,stposabs,n,x,y,istarget,isdistractor,distractor_cat,ditractor_atr,trial_targetseen,trial_correct,trial_cat,trial_resp,trial_atr,trial_type,trial_cattype,trial_number,trial_subject,trial_bgn_latency
0,1,0,25471,0.23828125,0.380859375,1,1,5,22,1,713.184387207031,454.558563232422,0,1,faces,male,0,1,faces,A,male,VS,F,1,J12,0.201171875
0,1,0,25472,0.634765625,0.255859375,2,1,7,32,2,825.898376464844,558.04248046875,0,1,faces,male,0,1,faces,A,male,VS,F,1,J12,0.201171875
0,1,0,25474,1.048828125,0.27734375,3,1,10,47,4,1046.14282226562,259.015502929688,0,1,faces,female,0,1,faces,A,male,VS,F,1,J12,0.201171875
0,1,0,25476,1.544921875,0.13671875,4,1,2,10,6,633.948669433594,179.681732177734,0,1,objects,big,0,1,faces,A,male,VS,F,1,J12,0.201171875
0,1,0,25477,1.736328125,0.271484375,5,0,12,73,7,1377.33349609375,160.995361328125,0,1,faces,female,0,1,faces,A,male,VS,F,1,J12,0.201171875
0,1,0,25478,2.021484375,0.2109375,6,0,13,74,8,1344.80224609375,241.611999511719,0,1,faces,female,0,1,faces,A,male,VS,F,1,J12,0.201171875
0,1,0,25479,2.265625,0.43359375,7,0,15,78,9,1339.32727050781,605.301635742188,0,1,faces,male,0,1,faces,A,male,VS,F,1,J12,0.201171875
0,1,0,25480,2.716796875,0.29296875,8,0,11,71,10,1244.22192382812,860.965026855469,0,1,faces,male,0,1,faces,A,male,VS,F,1,J12,0.201171875
0,1,0,25506,0.408203125,0.34765625,1,1,4,22,2,729.525451660156,470.091918945312,0,1,objects,small,0,1,faces,A,female,EX,I,2,J12,4.400390625
0,1,0,25507,0.7890625,0.302734375,2,1,8,41,3,945.082763671875,552.667175292969,0,1,faces,male,0,1,faces,A,female,EX,I,2,J12,4.400390625
1,1,0,25508,1.109375,0.181640625,3,1,9,59,4,1183.66772460938,538.909423828125,0,1,faces,male,0,1,faces,A,female,EX,I,2,J12,4.400390625
1,1,0,25509,1.3046875,0.376953125,4,1,11,68,5,1265.33666992188,541.027221679688,0,1,faces,male,0,1,faces,A,female,EX,I,2,J12,4.400390625
0,1,0,25510,1.693359375,0.341796875,5,0,12,69,6,1257.74487304688,653.777221679688,0,1,objects,big,0,1,faces,A,female,EX,I,2,J12,4.400390625
0,1,0,25511,2.060546875,0.28125,6,0,10,61,7,1140.21447753906,757.732177734375,0,1,faces,male,0,1,faces,A,female,EX,I,2,J12,4.400390625
2,1,0,25512,2.357421875,0.294921875,7,0,9,59,8,1158.92102050781,560.324890136719,0,1,faces,male,0,1,faces,A,female,EX,I,2,J12,4.400390625
2,1,0,25513,2.677734375,0.349609375,8,0,11,68,9,1253.67932128906,562.14453125,0,1,faces,male,0,1,faces,A,female,EX,I,2,J12,4.400390625
3,1,0,25514,3.056640625,0.154296875,9,0,9,59,10,1139.044921875,550.698364257812,0,1,faces,male,0,1,faces,A,female,EX,I,2,J12,4.400390625
0,1,0,25515,3.236328125,0.322265625,10,0,14,74,11,1343.95971679688,288.872192382812,0,1,objects,big,0,1,faces,A,female,EX,I,2,J12,4.400390625
0,1,0,25516,3.5703125,0.19140625,11,0,13,73,12,1370.06567382812,162.148330688477,0,1,faces,female,0,1,faces,A,female,EX,I,2,J12,4.400390625
1,1,0,25533,0.30859375,0.25,1,1,4,22,1,736.596618652344,425.447540283203,0,1,objects,big,0,1,faces,A,female,EX,F,3,J12,8.599609375
1,1,0,25534,0.568359375,0.1953125,2,1,3,21,2,734.759765625,341.549255371094,0,1,faces,male,0,1,faces,A,female,EX,F,3,J12,8.599609375
0,1,0,25535,0.783203125,0.51953125,3,1,1,2,3,525.107116699219,272.331787109375,0,1,faces,female,0,1,faces,A,female,EX,F,3,J12,8.599609375
1,1,0,25536,1.341796875,0.2578125,4,1,6,30,4,841.552795410156,340.601745605469,0,1,faces,male,0,1,faces,A,female,EX,F,3,J12,8.599609375
2,1,0,25537,1.62890625,0.271484375,5,0,3,21,5,721.765625,352.745239257812,0,1,faces,male,0,1,faces,A,female,EX,F,3,J12,8.599609375
2,1,0,25538,1.9140625,0.126953125,6,0,4,22,6,753.750122070312,432.599395751953,0,1,objects,big,0,1,faces,A,female,EX,F,3,J12,8.599609375
0,1,0,25539,2.052734375,0.314453125,7,0,7,31,7,826.304443359375,445.74169921875,0,1,objects,big,0,1,faces,A,female,EX,F,3,J12,8.599609375
2,1,0,25540,2.375,0.23046875,8,0,6,30,8,816.940002441406,336.905700683594,0,1,faces,male,0,1,faces,A,female,EX,F,3,J12,8.599609375
0,1,0,25541,2.646484375,0.30078125,9,0,9,60,9,1148.97009277344,676.327514648438,0,1,objects,small,0,1,faces,A,female,EX,F,3,J12,8.599609375
0,1,0,25542,2.97265625,0.291015625,10,0,11,69,10,1276.6875,657.25,0,1,faces,female,0,1,faces,A,female,EX,F,3,J12,8.599609375
0,1,0,25543,3.291015625,0.19140625,11,0,13,78,11,1389.06188964844,658.250122070312,0,1,faces,male,0,1,faces,A,female,EX,F,3,J12,8.599609375
0,1,0,25545,3.7890625,0.220703125,12,0,14,80,13,1357.38098144531,884.654602050781,0,1,faces,female,0,1,faces,A,female,EX,F,3,J12,8.599609375
0,1,0,25567,1.39453125,0.203125,1,1,5,19,4,721.248779296875,130.592300415039,0,1,faces,female,0,1,faces,P,female,VS,I,4,J12,12.798828125
0,1,0,25568,1.642578125,0.232421875,2,1,11,55,5,1145,152.711334228516,0,1,objects,big,0,1,faces,P,female,VS,I,4,J12,12.798828125
0,1,0,25569,1.90234375,0.255859375,3,1,13,65,6,1248.66528320312,242.934967041016,0,1,faces,male,0,1,faces,P,female,VS,I,4,J12,12.798828125
0,1,0,25571,2.416015625,0.27734375,4,1,8,50,8,1029.61218261719,548.253051757812,0,1,objects,small,0,1,faces,P,female,VS,I,4,J12,12.798828125
0,1,0,25572,2.728515625,0.2890625,5,0,15,70,9,1241.34338378906,764.681213378906,0,1,faces,female,0,1,faces,P,female,VS,I,4,J12,12.798828125
0,1,0,25573,3.037109375,0.4453125,6,0,9,51,10,1034.39294433594,672.856750488281,0,1,faces,male,0,1,faces,P,female,VS,I,4,J12,12.798828125
0,1,0,25592,0.283203125,0.125,1,1,2,21,2,734.4248046875,361.194122314453,0,1,objects,big,1,1,faces,P,female,VS,I,5,J12,16.998046875
0,1,0,25593,0.421875,0.271484375,2,1,5,29,3,835.9892578125,252.782455444336,0,1,faces,male,1,1,faces,P,female,VS,I,5,J12,16.998046875
1,0,0,25594,0.734375,0.2421875,3,1,10,57,4,1178.11938476562,340.960205078125,1,0,NaN,NaN,1,1,faces,P,female,VS,I,5,J12,16.998046875
1,0,0,25595,1,0.107421875,4,1,11,66,5,1224.36535644531,340.178680419922,0,1,faces,female,1,1,faces,P,female,VS,I,5,J12,16.998046875
2,0,0,25596,1.119140625,0.49609375,5,0,10,57,6,1157.21789550781,334.593017578125,1,0,NaN,NaN,1,1,faces,P,female,VS,I,5,J12,16.998046875
2,0,0,25597,1.642578125,0.23828125,6,0,11,66,7,1274.98388671875,356.093353271484,0,1,faces,female,1,1,faces,P,female,VS,I,5,J12,16.998046875
0,0,0,25598,1.896484375,0.2890625,7,0,13,73,8,1360.142578125,179.968811035156,0,1,objects,small,1,1,faces,P,female,VS,I,5,J12,16.998046875
3,0,0,25599,2.22265625,0.3046875,8,0,10,57,9,1135.6923828125,359.855072021484,1,0,NaN,NaN,1,1,faces,P,female,VS,I,5,J12,16.998046875
0,0,0,25600,2.564453125,0.259765625,9,0,14,78,10,1309.85729980469,677.880126953125,0,1,faces,female,1,1,faces,P,female,VS,I,5,J12,16.998046875
0,0,0,25601,2.849609375,0.29296875,10,0,12,71,11,1248.4736328125,864.696716308594,0,1,faces,male,1,1,faces,P,female,VS,I,5,J12,16.998046875
0,0,0,25602,3.16796875,0.201171875,11,0,8,44,12,963.051208496094,858.851440429688,0,1,objects,big,1,1,faces,P,female,VS,I,5,J12,16.998046875
0,0,0,25603,3.38671875,0.18359375,12,0,3,25,13,796.462036132812,700.532897949219,0,1,faces,female,1,1,faces,P,female,VS,I,5,J12,16.998046875
4,0,0,25605,3.7109375,0.697265625,13,0,10,57,15,1155.01586914062,364.435638427734,1,0,NaN,NaN,1,1,faces,P,female,VS,I,5,J12,16.998046875
0,1,0,25626,0.205078125,0.185546875,1,1,5,23,1,783.261047363281,516.108154296875,0,1,faces,female,1,1,objects,P,big,VS,O,6,J12,21.197265625
1,1,0,25630,1.005859375,0.189453125,2,1,10,61,5,1164.82434082031,776.929443359375,0,1,faces,female,1,1,objects,P,big,VS,O,6,J12,21.197265625
1,1,0,25631,1.2109375,0.166015625,3,1,12,69,6,1262.31958007812,666.825317382812,0,1,faces,male,1,1,objects,P,big,VS,O,6,J12,21.197265625
0,1,0,25632,1.392578125,0.177734375,4,1,11,67,7,1280.97729492188,456.893585205078,0,1,faces,female,1,1,objects,P,big,VS,O,6,J12,21.197265625
0,1,0,25633,1.58984375,0.28125,5,0,14,74,8,1357.79333496094,240.953689575195,0,1,objects,small,1,1,objects,P,big,VS,O,6,J12,21.197265625
0,1,0,25635,2.080078125,0.1875,6,0,3,10,10,629.646728515625,162.699081420898,0,1,faces,male,1,1,objects,P,big,VS,O,6,J12,21.197265625
0,1,0,25636,2.3046875,0.134765625,7,0,6,28,11,874.360168457031,184.812255859375,0,1,objects,big,1,1,objects,P,big,VS,O,6,J12,21.197265625
0,1,0,25637,2.451171875,0.1953125,8,0,8,38,12,922.53515625,228.019165039062,0,1,faces,male,1,1,objects,P,big,VS,O,6,J12,21.197265625
2,1,0,25640,3.1015625,0.22265625,9,0,10,61,15,1143.36755371094,746.599304199219,0,1,faces,female,1,1,objects,P,big,VS,O,6,J12,21.197265625
2,1,0,25641,3.3359375,0.12109375,10,0,12,69,16,1253.13439941406,679.600280761719,0,1,faces,male,1,1,objects,P,big,VS,O,6,J12,21.197265625
0,0,0,25642,3.49609375,0.853515625,11,0,9,44,17,933.595031738281,869.356079101562,1,0,NaN,NaN,1,1,objects,P,big,VS,O,6,J12,21.197265625
1,1,0,25663,0.189453125,0.3203125,1,1,7,41,1,935.09814453125,548.025329589844,0,1,faces,male,0,1,faces,A,male,EX,F,7,J12,25.396484375
0,1,0,25664,0.52734375,0.34375,2,1,5,30,2,846.460693359375,370.770782470703,0,1,faces,male,0,1,faces,A,male,EX,F,7,J12,25.396484375
0,1,0,25665,0.884765625,0.33984375,3,1,4,29,3,845.448974609375,250.233673095703,0,1,objects,big,0,1,faces,A,male,EX,F,7,J12,25.396484375
1,1,0,25667,1.603515625,0.115234375,4,1,9,49,5,1107.29077148438,478.149566650391,0,1,faces,female,0,1,faces,A,male,EX,F,7,J12,25.396484375
0,1,0,25668,1.751953125,0.255859375,5,0,12,67,6,1288.25842285156,460.806427001953,0,1,objects,big,0,1,faces,A,male,EX,F,7,J12,25.396484375
0,1,0,25669,2.03125,0.310546875,6,0,15,74,7,1346.33447265625,261.537994384766,0,1,faces,female,0,1,faces,A,male,EX,F,7,J12,25.396484375
2,1,1,25670,2.388671875,0.1640625,7,0,7,41,8,965.495422363281,557.964965820312,0,1,faces,male,0,1,faces,A,male,EX,F,7,J12,25.396484375
2,1,0,25672,2.765625,0.21875,8,0,9,49,10,1063.87463378906,477.194641113281,0,1,faces,female,0,1,faces,A,male,EX,F,7,J12,25.396484375
0,1,0,25673,3.001953125,0.322265625,9,0,8,42,11,921.350402832031,666.319946289062,0,1,faces,male,0,1,faces,A,male,EX,F,7,J12,25.396484375
0,1,0,25676,3.912109375,0.306640625,10,0,13,70,14,1250.77502441406,778.473876953125,0,1,faces,female,0,1,faces,A,male,EX,F,7,J12,25.396484375
0,1,0,25689,0.21875,0.162109375,1,1,4,7,1,585.42626953125,701.272338867188,0,1,faces,male,0,1,faces,P,male,VS,I,8,J12,29.595703125
0,1,0,25693,1.607421875,0.189453125,2,1,10,53,5,1039.87084960938,836.377746582031,0,1,objects,small,0,1,faces,P,male,VS,I,8,J12,29.595703125
0,1,0,25697,2.345703125,0.18359375,3,1,7,20,9,737.802856445312,257.828216552734,0,1,objects,big,0,1,faces,P,male,VS,I,8,J12,29.595703125
0,1,0,25698,2.572265625,0.20703125,4,1,11,56,10,1175.0830078125,271.463104248047,0,1,faces,female,0,1,faces,P,male,VS,I,8,J12,29.595703125
0,1,0,25699,2.791015625,0.279296875,5,0,12,57,11,1175.47033691406,376.480194091797,0,1,faces,female,0,1,faces,P,male,VS,I,8,J12,29.595703125
1,1,1,25721,0.259765625,0.228515625,1,1,1,4,1,587.203063964844,481.73779296875,0,1,faces,male,1,1,faces,P,female,VS,F,9,J12,33.794921875
0,1,0,25723,0.689453125,0.19921875,2,1,6,38,3,956.248718261719,271.898864746094,0,1,faces,female,1,1,faces,P,female,VS,F,9,J12,33.794921875
0,1,0,25724,0.90625,0.16015625,3,1,9,56,4,1184.73217773438,260.7431640625,0,1,objects,small,1,1,faces,P,female,VS,F,9,J12,33.794921875
0,1,0,25725,1.08203125,0.212890625,4,1,14,64,5,1304.08996582031,151.555419921875,0,1,faces,male,1,1,faces,P,female,VS,F,9,J12,33.794921875
0,1,0,25726,1.337890625,0.232421875,5,0,11,61,6,1134.64050292969,759.189025878906,0,1,objects,big,1,1,faces,P,female,VS,F,9,J12,33.794921875
0,1,0,25727,1.599609375,0.26953125,6,0,13,63,7,1168.59143066406,946.798461914062,0,1,faces,female,1,1,faces,P,female,VS,F,9,J12,33.794921875
0,1,0,25732,2.81640625,0.142578125,7,0,5,26,12,720.197021484375,839.209594726562,0,1,objects,small,1,1,faces,P,female,VS,F,9,J12,33.794921875
1,1,0,25733,2.970703125,0.171875,8,0,3,16,13,656.830688476562,780.295471191406,1,0,NaN,NaN,1,1,faces,P,female,VS,F,9,J12,33.794921875
2,1,0,25734,3.1640625,0.18359375,9,0,1,4,14,563.204956054688,485.467834472656,0,1,faces,male,1,1,faces,P,female,VS,F,9,J12,33.794921875
2,0,0,25735,3.373046875,0.955078125,10,0,3,16,15,627.924011230469,788.525695800781,1,0,NaN,NaN,1,1,faces,P,female,VS,F,9,J12,33.794921875
0,1,0,25754,0.66796875,0.4140625,1,1,1,1,2,533.929077148438,182.255523681641,0,1,faces,male,0,1,objects,A,small,EX,O,10,J12,37.994140625
0,1,0,25755,1.11328125,0.337890625,2,1,4,19,3,713.784362792969,167.545623779297,0,1,objects,big,0,1,objects,A,small,EX,O,10,J12,37.994140625
0,1,0,25756,1.4921875,0.2734375,3,1,8,46,4,1068.681640625,165.219497680664,0,1,objects,big,0,1,objects,A,small,EX,O,10,J12,37.994140625
0,1,0,25757,1.806640625,0.455078125,4,1,14,76,5,1348.94116210938,463.586486816406,0,1,objects,small,0,1,objects,A,small,EX,O,10,J12,37.994140625
0,1,1,25758,2.30078125,0.171875,5,0,9,49,6,1081.82788085938,457.284484863281,0,1,faces,male,0,1,objects,A,small,EX,O,10,J12,37.994140625
0,1,0,25760,2.625,0.185546875,6,0,5,31,8,854.519592285156,456.604156494141,0,1,faces,female,0,1,objects,A,small,EX,O,10,J12,37.994140625
0,1,0,25761,2.84375,0.162109375,7,0,7,44,9,995.807983398438,800.736267089844,0,1,objects,small,0,1,objects,A,small,EX,O,10,J12,37.994140625
0,1,0,25762,3.015625,0.21484375,8,0,11,53,10,1042.88122558594,798.770263671875,0,1,faces,female,0,1,objects,A,small,EX,O,10,J12,37.994140625
0,1,0,25763,3.2421875,0.173828125,9,0,12,54,11,1032.44799804688,920.746398925781,0,1,faces,female,0,1,objects,A,small,EX,O,10,J12,37.994140625
0,1,1,25783,0.21875,0.15625,1,1,4,14,1,692.914184570312,582.468811035156,0,1,faces,female,0,1,faces,A,male,EX,I,11,J12,42.193359375
1,1,0,25785,0.5546875,0.224609375,2,1,8,23,3,744.436218261719,581.295593261719,0,1,objects,small,0,1,faces,A,male,EX,I,11,J12,42.193359375
0,1,0,25787,0.96875,0.255859375,3,1,1,1,5,534.154296875,186.421157836914,0,1,faces,male,0,1,faces,A,male,EX,I,11,J12,42.193359375
0,1,0,25788,1.259765625,0.328125,4,1,6,19,6,739.440185546875,170.776733398438,0,1,faces,female,0,1,faces,A,male,EX,I,11,J12,42.193359375
0,1,0,25789,1.599609375,0.154296875,5,0,7,20,7,800.652709960938,245.834503173828,0,1,faces,male,0,1,faces,A,male,EX,I,11,J12,42.193359375
0,1,0,25791,1.88671875,0.224609375,6,0,13,65,9,1263.23193359375,267.966552734375,0,1,faces,male,0,1,faces,A,male,EX,I,11,J12,42.193359375
0,1,0,25792,2.138671875,0.22265625,7,0,15,74,10,1362.63952636719,271.617401123047,0,1,objects,small,0,1,faces,A,male,EX,I,11,J12,42.193359375
0,1,0,25793,2.3984375,0.23828125,8,0,12,58,11,1149.41882324219,441.821624755859,0,1,faces,male,0,1,faces,A,male,EX,I,11,J12,42.193359375
0,1,0,25795,3.328125,0.123046875,9,0,3,9,13,532.714599609375,956.643432617188,0,1,objects,big,0,1,faces,A,male,EX,I,11,J12,42.193359375
0,1,0,25797,3.69921875,0.1796875,10,0,5,15,15,657.81494140625,597.52783203125,0,1,faces,female,0,1,faces,A,male,EX,I,11,J12,42.193359375
2,1,0,25798,3.888671875,0.181640625,11,0,8,23,16,725.35107421875,578.787902832031,0,1,objects,small,0,1,faces,A,male,EX,I,11,J12,42.193359375
0,1,0,25812,0.208984375,0.205078125,1,1,6,39,1,935.479064941406,347.060943603516,0,1,faces,female,1,1,objects,P,big,VS,O,12,J12,46.392578125
0,1,0,25818,1.80859375,0.30078125,2,1,9,55,7,1172.3564453125,175.932144165039,0,1,objects,big,1,1,objects,P,big,VS,O,12,J12,46.392578125
1,0,0,25819,2.125,0.2578125,3,1,12,66,8,1265.912109375,313.982940673828,1,0,NaN,NaN,1,1,objects,P,big,VS,O,12,J12,46.392578125
0,0,0,25820,2.416015625,0.125,4,1,10,60,9,1149.43469238281,658.744201660156,0,1,faces,male,1,1,objects,P,big,VS,O,12,J12,46.392578125
2,0,0,25821,2.580078125,1.107421875,5,0,12,66,10,1256.64721679688,351.786712646484,1,0,NaN,NaN,1,1,objects,P,big,VS,O,12,J12,46.392578125
1,0,0,25838,0.220703125,0.279296875,1,1,5,21,1,766.730163574219,375.980590820312,1,0,NaN,NaN,1,0,faces,P,female,VS,F,13,J12,50.591796875
1,0,0,25839,0.51171875,0.185546875,2,1,4,20,2,726.001098632812,268.524932861328,0,1,faces,female,1,0,faces,P,female,VS,F,13,J12,50.591796875
2,0,0,25840,0.70703125,0.509765625,3,1,5,21,3,744.53955078125,356.504028320312,1,0,NaN,NaN,1,0,faces,P,female,VS,F,13,J12,50.591796875
0,0,0,25841,1.248046875,0.150390625,4,1,8,39,4,928.781982421875,383.608703613281,0,1,faces,female,1,0,faces,P,female,VS,F,13,J12,50.591796875
0,0,0,25842,1.412109375,0.193359375,5,0,6,31,5,828.73974609375,463.053558349609,0,1,faces,male,1,0,faces,P,female,VS,F,13,J12,50.591796875
0,0,0,25843,1.623046875,0.236328125,6,0,10,49,6,1041.85339355469,462.356018066406,0,1,faces,female,1,0,faces,P,female,VS,F,13,J12,50.591796875
0,0,0,25844,2.673828125,0.19140625,7,0,1,7,7,531.10205078125,778.126342773438,0,1,faces,male,1,0,faces,P,female,VS,F,13,J12,50.591796875
2,0,0,25846,3.095703125,0.125,8,0,4,20,9,787.468627929688,288.668212890625,0,1,faces,female,1,0,faces,P,female,VS,F,13,J12,50.591796875
0,0,0,25847,3.236328125,0.197265625,9,0,3,10,10,624.561279296875,185.099319458008,0,1,objects,big,1,0,faces,P,female,VS,F,13,J12,50.591796875
0,0,0,25849,3.64453125,0.1484375,10,0,13,75,12,1367.87487792969,358.864593505859,0,1,objects,big,1,0,faces,P,female,VS,F,13,J12,50.591796875
0,1,0,25877,0.353515625,0.21484375,1,1,4,32,3,842.668273925781,536.634765625,0,1,faces,female,0,0,objects,A,big,EX,O,14,J12,54.791015625
0,1,0,25878,0.599609375,0.41015625,2,1,1,11,4,668.062866210938,265.152862548828,0,1,faces,female,0,0,objects,A,big,EX,O,14,J12,54.791015625
0,1,0,25879,1.048828125,0.15234375,3,1,5,38,5,918.475280761719,262.693695068359,0,1,objects,big,0,0,objects,A,big,EX,O,14,J12,54.791015625
0,1,0,25880,1.212890625,0.169921875,4,1,3,30,6,853.835754394531,363.652740478516,0,1,objects,small,0,0,objects,A,big,EX,O,14,J12,54.791015625
0,1,0,25881,1.39453125,0.244140625,5,0,2,29,7,880.511108398438,243.071487426758,0,1,objects,big,0,0,objects,A,big,EX,O,14,J12,54.791015625
0,1,0,25882,1.681640625,0.25390625,6,0,10,65,8,1265.82019042969,244.252319335938,0,1,objects,big,0,0,objects,A,big,EX,O,14,J12,54.791015625
0,1,0,25883,1.94921875,0.240234375,7,0,9,64,9,1281.91015625,171.765274047852,0,1,faces,male,0,0,objects,A,big,EX,O,14,J12,54.791015625
0,1,0,25884,2.220703125,0.298828125,8,0,13,75,10,1370.59545898438,372.715911865234,0,1,faces,male,0,0,objects,A,big,EX,O,14,J12,54.791015625
0,1,0,25885,2.556640625,0.302734375,9,0,7,58,11,1143.20178222656,471.481506347656,0,1,faces,male,0,0,objects,A,big,EX,O,14,J12,54.791015625
0,1,0,25886,2.89453125,0.244140625,10,0,14,77,12,1355.88269042969,557.171875,0,1,faces,female,0,0,objects,A,big,EX,O,14,J12,54.791015625
0,1,0,25887,3.1484375,0.310546875,11,0,15,78,13,1365.32312011719,649.832641601562,0,1,faces,female,0,0,objects,A,big,EX,O,14,J12,54.791015625
0,1,1,25888,3.4921875,0.12109375,12,0,8,61,14,1194.94934082031,789.582885742188,0,1,faces,male,0,0,objects,A,big,EX,O,14,J12,54.791015625
0,1,0,25890,3.83203125,0.525390625,13,0,6,51,16,1051.595703125,669.898742675781,0,1,objects,small,0,0,objects,A,big,EX,O,14,J12,54.791015625
1,1,0,25901,0.072265625,0.330078125,1,1,6,41,1,935.885375976562,539.723815917969,0,1,objects,big,0,1,faces,A,male,VS,I,15,J12,58.990234375
0,1,0,25902,0.4453125,0.197265625,2,1,10,68,2,1283.26281738281,532.850280761719,0,1,faces,male,0,1,faces,A,male,VS,I,15,J12,58.990234375
1,1,0,25903,0.65234375,0.126953125,3,1,9,67,3,1283.32312011719,463.363708496094,0,1,faces,male,0,1,faces,A,male,VS,I,15,J12,58.990234375
0,1,0,25904,0.830078125,0.22265625,4,1,2,4,4,516.378662109375,465.949981689453,0,1,faces,female,0,1,faces,A,male,VS,I,15,J12,58.990234375
0,1,0,25905,1.068359375,0.216796875,5,0,1,2,5,516.759521484375,271.913757324219,0,1,faces,female,0,1,faces,A,male,VS,I,15,J12,58.990234375
0,1,0,25907,2.12890625,0.17578125,6,0,11,71,7,1275.04907226562,887.190856933594,0,1,faces,female,0,1,faces,A,male,VS,I,15,J12,58.990234375
0,1,0,25908,2.3203125,0.197265625,7,0,15,79,8,1361.84741210938,767.236450195312,0,1,faces,female,0,1,faces,A,male,VS,I,15,J12,58.990234375
0,1,1,25910,2.671875,0.1484375,8,0,5,31,10,886.569702148438,460.332336425781,0,1,objects,small,0,1,faces,A,male,VS,I,15,J12,58.990234375
2,1,0,25912,2.921875,0.232421875,9,0,6,41,12,915.078857421875,549.210754394531,0,1,objects,big,0,1,faces,A,male,VS,I,15,J12,58.990234375
2,1,0,25913,3.1953125,0.28515625,10,0,9,67,13,1267.18444824219,454.713653564453,0,1,faces,male,0,1,faces,A,male,VS,I,15,J12,58.990234375
0,1,0,25915,3.59375,0.279296875,11,0,13,73,15,1390.56945800781,178.521408081055,0,1,faces,male,0,1,faces,A,male,VS,I,15,J12,58.990234375
1,0,0,25932,0.216796875,1.77734375,1,1,8,42,1,921.134704589844,659.751708984375,1,0,NaN,NaN,1,1,objects,P,small,VS,O,16,J12,63.189453125
0,0,0,25933,2.0078125,0.208984375,2,1,10,52,2,1017.73321533203,778.486877441406,0,1,faces,male,1,1,objects,P,small,VS,O,16,J12,63.189453125
2,0,0,25934,2.232421875,0.796875,3,1,8,42,3,922.432312011719,678.090026855469,1,0,NaN,NaN,1,1,objects,P,small,VS,O,16,J12,63.189453125
0,0,0,25939,3.884765625,0.2109375,4,1,14,75,8,1375.44995117188,350.709625244141,0,1,faces,female,1,1,objects,P,small,VS,O,16,J12,63.189453125
0,1,0,25958,0.201171875,0.201171875,1,1,4,24,1,746.219909667969,665.075378417969,0,1,faces,male,1,1,faces,P,male,VS,F,17,J12,67.388671875
0,1,0,25960,0.61328125,0.185546875,2,1,1,3,3,518.869750976562,363.739624023438,0,1,faces,male,1,1,faces,P,male,VS,F,17,J12,67.388671875
0,1,0,25962,1.001953125,0.162109375,3,1,5,29,5,859.347717285156,261.326721191406,0,1,faces,female,1,1,faces,P,male,VS,F,17,J12,67.388671875
0,1,0,25963,1.201171875,0.400390625,4,1,8,56,6,1188.56591796875,273.635375976562,0,1,faces,male,1,1,faces,P,male,VS,F,17,J12,67.388671875
0,1,0,25964,1.6171875,0.203125,5,0,7,49,7,1076.05151367188,448.653839111328,0,1,faces,male,1,1,faces,P,male,VS,F,17,J12,67.388671875
1,0,0,25965,1.83203125,0.234375,6,0,9,58,8,1146.95104980469,469.392242431641,1,0,NaN,NaN,1,1,faces,P,male,VS,F,17,J12,67.388671875
0,0,0,25966,2.103515625,0.267578125,7,0,14,77,9,1337.48522949219,578.6015625,0,1,faces,female,1,1,faces,P,male,VS,F,17,J12,67.388671875
2,0,0,25967,2.388671875,0.76953125,8,0,9,58,10,1152.54125976562,473.945709228516,1,0,NaN,NaN,1,1,faces,P,male,VS,F,17,J12,67.388671875
0,0,0,25968,3.173828125,0.33203125,9,0,10,66,11,1235.2646484375,354.916961669922,0,1,faces,female,1,1,faces,P,male,VS,F,17,J12,67.388671875
3,0,0,25969,3.533203125,0.2890625,10,0,9,58,12,1125.62939453125,461.054748535156,1,0,NaN,NaN,1,1,faces,P,male,VS,F,17,J12,67.388671875
1,1,0,25984,0.3828125,0.30078125,1,1,11,42,2,935.269409179688,597.382690429688,0,1,faces,male,0,1,objects,A,big,VS,O,18,J12,71.587890625
1,1,0,25985,0.71484375,0.150390625,2,1,5,12,3,701.717041015625,311.564056396484,0,1,faces,female,0,1,objects,A,big,VS,O,18,J12,71.587890625
1,1,0,25986,0.888671875,0.158203125,3,1,6,20,4,745.754455566406,290.130554199219,0,1,objects,small,0,1,objects,A,big,VS,O,18,J12,71.587890625
0,1,0,25987,1.068359375,0.30078125,4,1,1,1,5,515.274291992188,189.281600952148,0,1,objects,big,0,1,objects,A,big,VS,O,18,J12,71.587890625
1,1,0,25991,1.90234375,0.19140625,5,0,12,43,9,940.585510253906,722.413269042969,0,1,faces,male,0,1,objects,A,big,VS,O,18,J12,71.587890625
2,1,0,25992,2.1015625,0.416015625,6,0,11,42,10,968.667297363281,618.508056640625,0,1,faces,male,0,1,objects,A,big,VS,O,18,J12,71.587890625
0,1,0,25993,2.544921875,0.150390625,7,0,14,50,11,1068.59753417969,563.201599121094,0,1,faces,female,0,1,objects,A,big,VS,O,18,J12,71.587890625
2,1,0,25995,2.970703125,0.23828125,8,0,5,12,13,669.96875,331.170135498047,0,1,faces,female,0,1,objects,A,big,VS,O,18,J12,71.587890625
2,1,0,25996,3.224609375,0.306640625,9,0,6,20,14,761.334411621094,252.379684448242,0,1,objects,small,0,1,objects,A,big,VS,O,18,J12,71.587890625
2,1,0,25997,3.568359375,0.2109375,10,0,12,43,15,912.909912109375,741.456176757812,0,1,faces,male,0,1,objects,A,big,VS,O,18,J12,71.587890625
1,0,1,26015,0.5078125,0.216796875,1,1,9,40,2,953.222290039062,410.852569580078,1,0,NaN,NaN,1,1,objects,P,big,VS,O,19,J12,75.787109375
0,0,0,26017,1.505859375,0.255859375,2,1,8,39,4,971.897277832031,356.703277587891,0,1,objects,big,1,1,objects,P,big,VS,O,19,J12,75.787109375
0,0,0,26018,1.779296875,0.255859375,3,1,7,37,5,945.644226074219,161.785522460938,0,1,faces,female,1,1,objects,P,big,VS,O,19,J12,75.787109375
0,0,0,26020,2.212890625,0.1875,4,1,1,3,7,552.317810058594,376.518096923828,0,1,faces,male,1,1,objects,P,big,VS,O,19,J12,75.787109375
2,0,0,26023,2.9765625,1.525390625,5,0,9,40,10,926.850830078125,465.205352783203,1,0,NaN,NaN,1,1,objects,P,big,VS,O,19,J12,75.787109375
1,1,0,26038,0.330078125,0.234375,1,1,9,50,2,1022.26531982422,501.079895019531,0,1,faces,female,0,1,faces,A,female,VS,I,20,J12,79.986328125
1,1,0,26039,0.58203125,0.189453125,2,1,7,47,3,1040.59973144531,278.670593261719,0,1,objects,big,0,1,faces,A,female,VS,I,20,J12,79.986328125
1,1,0,26040,0.798828125,0.349609375,3,1,12,56,4,1164.380859375,196.531951904297,0,1,faces,male,0,1,faces,A,female,VS,I,20,J12,79.986328125
0,1,0,26041,1.1953125,0.189453125,4,1,1,2,5,548.605895996094,223.81217956543,0,1,objects,small,0,1,faces,A,female,VS,I,20,J12,79.986328125
0,1,1,26042,1.423828125,0.212890625,5,0,3,16,6,635.581665039062,718.30810546875,0,1,faces,male,0,1,faces,A,female,VS,I,20,J12,79.986328125
0,1,0,26044,1.818359375,0.490234375,6,0,2,15,8,659.013488769531,682.398620605469,0,1,faces,female,0,1,faces,A,female,VS,I,20,J12,79.986328125
2,1,0,26046,2.58984375,0.46875,7,0,9,50,10,1040.34582519531,584.166320800781,0,1,faces,female,0,1,faces,A,female,VS,I,20,J12,79.986328125
0,1,0,26047,3.0703125,0.33203125,8,0,8,49,11,1036.64672851562,458.827575683594,0,1,faces,female,0,1,faces,A,female,VS,I,20,J12,79.986328125
2,1,0,26048,3.419921875,0.14453125,9,0,7,47,12,1070.06298828125,267.795349121094,0,1,objects,big,0,1,faces,A,female,VS,I,20,J12,79.986328125
2,1,0,26049,3.587890625,0.451171875,10,0,12,56,13,1158.31909179688,211.345687866211,0,1,faces,male,0,1,faces,A,female,VS,I,20,J12,79.986328125
1,1,1,26069,0.208984375,0.140625,1,1,10,51,1,1017.71124267578,660.588684082031,0,1,faces,male,0,1,faces,A,female,VS,F,21,J12,84.185546875
0,1,0,26071,0.5859375,0.16796875,2,1,5,24,3,769.120666503906,668.493286132812,0,1,faces,female,0,1,faces,A,female,VS,F,21,J12,84.185546875
0,1,0,26072,0.763671875,0.1640625,3,1,6,33,4,817.798278808594,662.110412597656,0,1,faces,male,0,1,faces,A,female,VS,F,21,J12,84.185546875
0,1,0,26074,1.197265625,0.197265625,4,1,1,10,6,626.523986816406,189.035369873047,0,1,objects,small,0,1,faces,A,female,VS,F,21,J12,84.185546875
0,1,0,26075,1.4375,0.1875,5,0,9,47,7,1040.74719238281,266.790832519531,0,1,objects,small,0,1,faces,A,female,VS,F,21,J12,84.185546875
0,1,0,26077,1.796875,0.134765625,6,0,14,75,9,1333.48657226562,350.210632324219,0,1,objects,big,0,1,faces,A,female,VS,F,21,J12,84.185546875
0,1,0,26080,2.427734375,0.220703125,7,0,8,45,12,940.856384277344,911.265747070312,0,1,faces,female,0,1,faces,A,female,VS,F,21,J12,84.185546875
0,1,0,26084,3.23046875,0.5703125,8,0,13,70,16,1232.07373046875,778.31103515625,0,1,faces,female,0,1,faces,A,female,VS,F,21,J12,84.185546875
2,1,0,26085,3.818359375,0.248046875,9,0,10,51,17,1036.51220703125,674.803894042969,0,1,faces,male,0,1,faces,A,female,VS,F,21,J12,84.185546875
1,1,0,26103,0.1796875,0.443359375,1,1,8,50,1,1063.49499511719,534.576965332031,0,1,objects,big,0,1,objects,A,small,VS,O,22,J12,88.384765625
1,1,0,26104,0.63671875,0.40625,2,1,4,41,2,933.383544921875,559.580810546875,0,1,objects,small,0,1,objects,A,small,VS,O,22,J12,88.384765625
0,1,0,26109,2.060546875,0.234375,3,1,10,56,7,1142.85961914062,265.106536865234,0,1,faces,male,0,1,objects,A,small,VS,O,22,J12,88.384765625
0,1,0,26110,2.306640625,0.119140625,4,1,7,47,8,1085.50622558594,259.447143554688,0,1,faces,male,0,1,objects,A,small,VS,O,22,J12,88.384765625
0,1,0,26111,2.4609375,0.2265625,5,0,13,65,9,1256.47241210938,254.128936767578,0,1,faces,female,0,1,objects,A,small,VS,O,22,J12,88.384765625
2,1,0,26112,2.732421875,0.171875,6,0,4,41,10,984.906311035156,542.8486328125,0,1,objects,small,0,1,objects,A,small,VS,O,22,J12,88.384765625
2,1,0,26113,2.927734375,0.505859375,7,0,8,50,11,1040.78076171875,579.127624511719,0,1,objects,big,0,1,objects,A,small,VS,O,22,J12,88.384765625
3,1,0,26114,3.447265625,0.57421875,8,0,4,41,12,943.704711914062,575.791320800781,0,1,objects,small,0,1,objects,A,small,VS,O,22,J12,88.384765625
0,1,0,26131,0.6484375,0.1640625,1,1,4,16,3,633.690795898438,772.443603515625,0,1,faces,female,1,0,faces,P,male,VS,I,23,J12,92.583984375
1,1,0,26132,0.822265625,0.111328125,2,1,1,8,4,595.544860839844,798.243530273438,0,1,faces,male,1,0,faces,P,male,VS,I,23,J12,92.583984375
2,1,0,26135,1.3984375,0.1953125,3,1,1,8,7,593.942443847656,811.642517089844,0,1,faces,male,1,0,faces,P,male,VS,I,23,J12,92.583984375
0,0,0,26139,2.177734375,0.796875,4,1,8,32,11,812.813659667969,577.676452636719,1,0,NaN,NaN,1,0,faces,P,male,VS,I,23,J12,92.583984375
0,0,0,26140,3.005859375,0.2265625,5,0,3,11,12,619.27880859375,250.596496582031,0,1,objects,big,1,0,faces,P,male,VS,I,23,J12,92.583984375
0,0,0,26141,3.240234375,0.220703125,6,0,2,10,13,625.998657226562,174.59912109375,0,1,faces,male,1,0,faces,P,male,VS,I,23,J12,92.583984375
0,0,0,26142,3.505859375,0.201171875,7,0,13,57,14,1148.88146972656,357.673553466797,0,1,objects,small,1,0,faces,P,male,VS,I,23,J12,92.583984375
0,0,0,26144,3.919921875,0.11328125,8,0,14,67,16,1220.64807128906,476.035064697266,0,1,objects,small,1,0,faces,P,male,VS,I,23,J12,92.583984375
0,1,1,26159,0.18359375,0.169921875,1,1,9,33,1,902.934814453125,653.467102050781,1,0,NaN,NaN,1,0,faces,P,female,VS,F,24,J12,96.783203125
0,1,0,26161,0.560546875,0.244140625,2,1,4,8,3,605.127746582031,819.862670898438,0,1,faces,female,1,0,faces,P,female,VS,F,24,J12,96.783203125
0,1,0,26163,0.974609375,0.20703125,3,1,8,16,5,655.595581054688,694.673156738281,0,1,faces,male,1,0,faces,P,female,VS,F,24,J12,96.783203125
0,1,0,26164,1.201171875,0.189453125,4,1,3,3,6,553.048706054688,363.922271728516,0,1,objects,small,1,0,faces,P,female,VS,F,24,J12,96.783203125
0,1,1,26165,1.400390625,0.150390625,5,0,2,2,7,534.384765625,246.323059082031,0,1,objects,small,1,0,faces,P,female,VS,F,24,J12,96.783203125
0,1,0,26167,1.89453125,0.2109375,6,0,10,39,9,933.785278320312,384.503173828125,0,1,faces,male,1,0,faces,P,female,VS,F,24,J12,96.783203125
0,1,0,26168,2.123046875,0.255859375,7,0,11,41,10,944.444030761719,552.920227050781,0,1,faces,female,1,0,faces,P,female,VS,F,24,J12,96.783203125
0,1,0,26169,2.4140625,0.24609375,8,0,12,60,11,1139.66479492188,662.120300292969,0,1,faces,female,1,0,faces,P,female,VS,F,24,J12,96.783203125
0,1,0,26170,2.673828125,0.1953125,9,0,13,70,12,1233.75573730469,746.91162109375,0,1,objects,big,1,0,faces,P,female,VS,F,24,J12,96.783203125
0,1,0,26196,0.390625,0.16015625,1,1,11,49,3,1059.39086914062,464.086761474609,0,1,faces,female,1,1,objects,P,big,VS,O,25,J12,100.982421875
1,1,0,26197,0.564453125,0.2109375,2,1,12,56,4,1136.9951171875,275.942657470703,0,1,faces,female,1,1,objects,P,big,VS,O,25,J12,100.982421875
0,1,0,26199,0.984375,0.103515625,3,1,9,44,6,926.116516113281,877.618835449219,0,1,objects,small,1,1,objects,P,big,VS,O,25,J12,100.982421875
0,1,0,26200,1.111328125,0.224609375,4,1,5,17,7,692.005249023438,876.259704589844,0,1,objects,big,1,1,objects,P,big,VS,O,25,J12,100.982421875
0,1,0,26202,1.537109375,0.216796875,5,0,6,25,9,737.718139648438,782.329162597656,0,1,objects,big,1,1,objects,P,big,VS,O,25,J12,100.982421875
0,1,0,26203,1.783203125,0.1953125,6,0,4,15,10,644.949768066406,659.236572265625,0,1,faces,male,1,1,objects,P,big,VS,O,25,J12,100.982421875
0,1,0,26205,2.169921875,0.306640625,7,0,10,46,12,1072.25891113281,146.110717773438,0,1,objects,small,1,1,objects,P,big,VS,O,25,J12,100.982421875
2,1,0,26206,2.501953125,0.177734375,8,0,12,56,13,1197.33544921875,288.690277099609,0,1,faces,female,1,1,objects,P,big,VS,O,25,J12,100.982421875
0,1,0,26207,2.71484375,0.13671875,9,0,14,74,14,1370.93664550781,249.376724243164,0,1,faces,female,1,1,objects,P,big,VS,O,25,J12,100.982421875
0,1,0,26208,2.880859375,0.171875,10,0,13,69,15,1292.61730957031,643.974548339844,0,1,faces,male,1,1,objects,P,big,VS,O,25,J12,100.982421875
0,0,0,26209,3.060546875,1.228515625,11,0,15,78,16,1335.2607421875,646.879455566406,1,0,NaN,NaN,1,1,objects,P,big,VS,O,25,J12,100.982421875
1,1,0,26228,0.265625,0.189453125,1,1,7,23,1,733.984619140625,583.494018554688,0,1,faces,female,0,1,objects,A,big,VS,O,26,J12,105.181640625
1,1,1,26229,0.46875,0.1796875,2,1,8,31,2,830.798889160156,476.005218505859,0,1,objects,small,0,1,objects,A,big,VS,O,26,J12,105.181640625
0,1,0,26231,0.828125,0.306640625,3,1,12,75,4,1389.06665039062,354.587158203125,0,1,objects,big,0,1,objects,A,big,VS,O,26,J12,105.181640625
0,1,0,26232,1.181640625,0.259765625,4,1,11,72,5,1244.20092773438,962.519165039062,0,1,faces,male,0,1,objects,A,big,VS,O,26,J12,105.181640625
0,1,0,26235,1.912109375,0.2890625,5,0,13,79,8,1340.01159667969,760.661010742188,0,1,faces,male,0,1,objects,A,big,VS,O,26,J12,105.181640625
0,1,1,26237,2.38671875,0.126953125,6,0,1,3,10,568.679809570312,378.9951171875,0,1,objects,big,0,1,objects,A,big,VS,O,26,J12,105.181640625
0,1,0,26239,2.8671875,0.302734375,7,0,4,14,12,632.523315429688,561.056579589844,0,1,objects,small,0,1,objects,A,big,VS,O,26,J12,105.181640625
2,1,0,26240,3.1953125,0.140625,8,0,7,23,13,780.422790527344,505.344940185547,0,1,faces,female,0,1,objects,A,big,VS,O,26,J12,105.181640625
0,1,0,26242,3.53125,0.111328125,9,0,5,16,15,643.909057617188,773.743530273438,0,1,faces,male,0,1,objects,A,big,VS,O,26,J12,105.181640625
2,1,0,26243,3.66015625,0.646484375,10,0,8,31,16,831.118103027344,457.174377441406,0,1,objects,small,0,1,objects,A,big,VS,O,26,J12,105.181640625
0,1,0,26264,1.052734375,0.1953125,1,1,2,9,4,552.32080078125,948.477661132812,0,1,faces,female,0,1,faces,A,male,VS,I,27,J12,109.380859375
0,1,0,26265,1.296875,0.201171875,2,1,8,47,5,1100.54821777344,285.913696289062,0,1,faces,male,0,1,faces,A,male,VS,I,27,J12,109.380859375
0,1,0,26266,1.513671875,0.189453125,3,1,14,64,6,1220.66027832031,168.258361816406,0,1,objects,big,0,1,faces,A,male,VS,I,27,J12,109.380859375
0,1,0,26268,1.892578125,0.208984375,4,1,9,49,8,1072.52038574219,432.230072021484,0,1,faces,male,0,1,faces,A,male,VS,I,27,J12,109.380859375
0,1,0,26269,2.126953125,0.26171875,5,0,15,74,9,1406.82983398438,273.159790039062,0,1,faces,female,0,1,faces,A,male,VS,I,27,J12,109.380859375
0,1,0,26270,2.4296875,0.341796875,6,0,12,61,10,1114.51574707031,760.460266113281,0,1,faces,female,0,1,faces,A,male,VS,I,27,J12,109.380859375
0,1,0,26289,0.046875,0.181640625,1,1,9,43,1,997.10595703125,744.2451171875,0,1,faces,female,0,1,objects,A,small,VS,O,28,J12,113.580078125
0,1,0,26290,0.255859375,0.21484375,2,1,7,34,2,871.70068359375,752.189819335938,0,1,objects,small,0,1,objects,A,small,VS,O,28,J12,113.580078125
1,1,0,26291,0.513671875,0.18359375,3,1,12,69,3,1256.19860839844,669.114440917969,0,1,objects,big,0,1,objects,A,small,VS,O,28,J12,113.580078125
1,1,0,26292,0.71484375,0.244140625,4,1,11,67,4,1273.67358398438,442.028076171875,0,1,faces,male,0,1,objects,A,small,VS,O,28,J12,113.580078125
1,1,0,26293,0.986328125,0.26953125,5,0,10,56,5,1204.92370605469,210.966445922852,0,1,objects,big,0,1,objects,A,small,VS,O,28,J12,113.580078125
1,1,0,26294,1.302734375,0.1875,6,0,3,14,6,689.441345214844,507.322387695312,0,1,faces,male,0,1,objects,A,small,VS,O,28,J12,113.580078125
0,1,0,26295,1.5,0.13671875,7,0,5,23,7,712.637878417969,533.2919921875,0,1,faces,male,0,1,objects,A,small,VS,O,28,J12,113.580078125
0,1,0,26298,1.982421875,0.19921875,8,0,2,6,10,545.05810546875,631.218811035156,0,1,faces,female,0,1,objects,A,small,VS,O,28,J12,113.580078125
2,1,0,26299,2.19140625,0.12890625,9,0,3,14,11,619.3857421875,589.636962890625,0,1,faces,male,0,1,objects,A,small,VS,O,28,J12,113.580078125
0,1,0,26301,2.564453125,0.232421875,10,0,8,37,13,963.4033203125,176.649383544922,0,1,faces,female,0,1,objects,A,small,VS,O,28,J12,113.580078125
2,1,0,26302,2.826171875,0.236328125,11,0,10,56,14,1178.96801757812,232.037078857422,0,1,objects,big,0,1,objects,A,small,VS,O,28,J12,113.580078125
2,1,0,26303,3.09375,0.234375,12,0,11,67,15,1239.45483398438,419.901977539062,0,1,faces,male,0,1,objects,A,small,VS,O,28,J12,113.580078125
0,1,0,26304,3.35546875,0.203125,13,0,13,76,16,1355.34948730469,434.273895263672,0,1,faces,female,0,1,objects,A,small,VS,O,28,J12,113.580078125
2,1,0,26305,3.591796875,0.388671875,14,0,12,69,17,1247.19848632812,670.121887207031,0,1,objects,big,0,1,objects,A,small,VS,O,28,J12,113.580078125
0,1,0,26306,3.994140625,0.30859375,15,0,14,78,18,1335.10290527344,677.562072753906,0,1,faces,female,0,1,objects,A,small,VS,O,28,J12,113.580078125
1,1,0,26331,0.896484375,0.13671875,1,1,4,13,5,688.35302734375,415.722717285156,0,1,faces,male,1,1,faces,P,male,VS,I,29,J12,117.779296875
0,1,0,26332,1.044921875,0.181640625,2,1,3,12,6,632.15087890625,333.596557617188,0,1,faces,female,1,1,faces,P,male,VS,I,29,J12,117.779296875
2,1,0,26333,1.240234375,0.46875,3,1,4,13,7,654.079162597656,426.203308105469,0,1,faces,male,1,1,faces,P,male,VS,I,29,J12,117.779296875
0,1,0,26334,1.732421875,0.26171875,4,1,2,10,8,655.892883300781,150.44303894043,0,1,faces,male,1,1,faces,P,male,VS,I,29,J12,117.779296875
0,1,0,26335,2.01953125,0.125,5,0,5,19,9,731.5078125,141.077331542969,0,1,faces,female,1,1,faces,P,male,VS,I,29,J12,117.779296875
1,1,0,26336,2.193359375,0.21484375,6,0,11,65,10,1267.24768066406,222.791152954102,0,1,faces,male,1,1,faces,P,male,VS,I,29,J12,117.779296875
0,1,0,26337,2.419921875,0.708984375,7,0,13,73,11,1365.83190917969,149.147659301758,0,1,faces,male,1,1,faces,P,male,VS,I,29,J12,117.779296875
2,1,0,26338,3.1640625,0.2890625,8,0,11,65,12,1219.41333007812,240.181564331055,0,1,faces,male,1,1,faces,P,male,VS,I,29,J12,117.779296875
0,0,0,26339,3.486328125,0.453125,9,0,12,70,13,1217.31359863281,745.434753417969,1,0,NaN,NaN,1,1,faces,P,male,VS,I,29,J12,117.779296875
0,1,0,26362,1.787109375,0.197265625,1,1,1,3,4,513.371398925781,339.647186279297,0,1,objects,small,0,1,faces,A,male,EX,I,30,J12,121.978515625
0,1,0,26363,2.025390625,0.31640625,2,1,6,29,5,846.799377441406,253.052307128906,0,1,faces,female,0,1,faces,A,male,EX,I,30,J12,121.978515625
0,1,1,26364,2.36328125,0.138671875,3,1,13,55,6,1122.51147460938,174.637710571289,0,1,faces,male,0,1,faces,A,male,EX,I,30,J12,121.978515625
0,1,0,26366,2.779296875,0.40625,4,1,9,47,8,1034.13293457031,233.948028564453,0,1,faces,female,0,1,faces,A,male,EX,I,30,J12,121.978515625
0,1,0,26367,3.2265625,0.248046875,5,0,15,76,9,1372.48010253906,413.934722900391,0,1,objects,big,0,1,faces,A,male,EX,I,30,J12,121.978515625
0,1,0,26368,3.509765625,0.369140625,6,0,10,49,10,1055.92224121094,437.874664306641,0,1,faces,male,0,1,faces,A,male,EX,I,30,J12,121.978515625
0,1,0,26369,3.90234375,0.38671875,7,0,11,52,11,1099.55700683594,787.772155761719,0,1,faces,male,0,1,faces,A,male,EX,I,30,J12,121.978515625
0,1,0,26383,0.21484375,0.216796875,1,1,5,23,1,808.517517089844,582.535583496094,0,1,objects,big,1,1,objects,P,big,VS,O,31,J12,126.177734375
0,1,0,26385,1.302734375,0.205078125,2,1,6,33,3,848.939819335938,653.611206054688,0,1,faces,male,1,1,objects,P,big,VS,O,31,J12,126.177734375
1,0,1,26387,1.72265625,0.59375,3,1,8,53,5,1019.57379150391,890.490539550781,1,0,NaN,NaN,1,1,objects,P,big,VS,O,31,J12,126.177734375
0,0,0,26391,2.9765625,0.12890625,4,1,14,80,9,1357.048828125,879.815063476562,0,1,faces,female,1,1,objects,P,big,VS,O,31,J12,126.177734375
2,0,0,26392,3.125,0.79296875,5,0,8,53,10,1021.31103515625,881.240966796875,1,0,NaN,NaN,1,1,objects,P,big,VS,O,31,J12,126.177734375
0,0,0,26393,3.947265625,0.185546875,6,0,9,59,11,1152.32397460938,581.394592285156,0,1,objects,big,1,1,objects,P,big,VS,O,31,J12,126.177734375
0,1,0,26413,0.513671875,0.21484375,1,1,1,12,4,659.624389648438,366.852783203125,0,1,objects,big,0,1,faces,A,male,VS,F,32,J12,130.376953125
0,1,0,26414,0.744140625,0.14453125,2,1,4,20,5,731.932739257812,215.561965942383,0,1,objects,small,0,1,faces,A,male,VS,F,32,J12,130.376953125
0,1,0,26415,0.8984375,0.21875,3,1,3,19,6,755.453430175781,143.851196289062,0,1,faces,male,0,1,faces,A,male,VS,F,32,J12,130.376953125
0,1,1,26416,1.1640625,0.1875,4,1,13,74,7,1312.00891113281,245.671508789062,0,1,objects,big,0,1,faces,A,male,VS,F,32,J12,130.376953125
1,1,0,26418,1.546875,0.14453125,5,0,10,67,9,1230.25256347656,430.298431396484,0,1,faces,male,0,1,faces,A,male,VS,F,32,J12,130.376953125
0,1,0,26419,1.705078125,0.158203125,6,0,14,76,10,1360.11791992188,422.094512939453,0,1,faces,female,0,1,faces,A,male,VS,F,32,J12,130.376953125
2,1,0,26420,1.876953125,0.22265625,7,0,10,67,11,1279.76965332031,427.378967285156,0,1,faces,male,0,1,faces,A,male,VS,F,32,J12,130.376953125
1,1,0,26421,2.1171875,0.212890625,8,0,11,69,12,1263.80017089844,667.977233886719,0,1,faces,female,0,1,faces,A,male,VS,F,32,J12,130.376953125
1,1,0,26422,2.34375,0.203125,9,0,12,70,13,1267.67102050781,787.336669921875,0,1,faces,male,0,1,faces,A,male,VS,F,32,J12,130.376953125
0,1,0,26423,2.564453125,0.158203125,10,0,8,63,14,1173.23986816406,978.238159179688,0,1,faces,male,0,1,faces,A,male,VS,F,32,J12,130.376953125
0,1,0,26424,2.76171875,0.19921875,11,0,15,80,15,1367.05749511719,863.7333984375,0,1,faces,male,0,1,faces,A,male,VS,F,32,J12,130.376953125
0,1,0,26425,2.9921875,0.3203125,12,0,5,42,16,949.678466796875,683.365051269531,0,1,objects,small,0,1,faces,A,male,VS,F,32,J12,130.376953125
0,1,0,26426,3.32421875,0.181640625,13,0,6,43,17,939.96533203125,764.617370605469,0,1,faces,female,0,1,faces,A,male,VS,F,32,J12,130.376953125
2,1,0,26427,3.54296875,0.21875,14,0,11,69,18,1243.98364257812,647.524230957031,0,1,faces,female,0,1,faces,A,male,VS,F,32,J12,130.376953125
2,1,0,26428,3.775390625,0.16015625,15,0,12,70,19,1242.41345214844,757.373291015625,0,1,faces,male,0,1,faces,A,male,VS,F,32,J12,130.376953125
0,1,0,26429,3.974609375,0.263671875,16,0,7,58,20,1134.37048339844,463.918762207031,0,1,faces,male,0,1,faces,A,male,VS,F,32,J12,130.376953125
0,1,0,26443,0.359375,0.142578125,1,1,8,41,2,944.225036621094,540.057739257812,0,1,faces,female,0,1,faces,A,female,VS,F,33,J12,134.576171875
0,1,0,26445,0.708984375,0.154296875,2,1,2,12,4,634.467590332031,357.127899169922,0,1,objects,big,0,1,faces,A,female,VS,F,33,J12,134.576171875
0,1,0,26446,0.875,0.171875,3,1,3,13,5,634.874145507812,463.005767822266,0,1,faces,female,0,1,faces,A,female,VS,F,33,J12,134.576171875
0,1,0,26447,1.06640625,0.205078125,4,1,5,29,6,875.423217773438,232.489669799805,0,1,objects,small,0,1,faces,A,female,VS,F,33,J12,134.576171875
1,1,0,26448,1.283203125,0.140625,5,0,7,37,7,924.061218261719,158.498489379883,0,1,faces,male,0,1,faces,A,female,VS,F,33,J12,134.576171875
0,1,0,26449,1.435546875,0.224609375,6,0,4,28,8,853.370666503906,166.456787109375,0,1,faces,male,0,1,faces,A,female,VS,F,33,J12,134.576171875
0,1,0,26450,1.677734375,0.259765625,7,0,10,47,9,1058.44177246094,241.625717163086,0,1,faces,female,0,1,faces,A,female,VS,F,33,J12,134.576171875
2,1,0,26451,1.955078125,0.205078125,8,0,7,37,10,941.074340820312,149.412551879883,0,1,faces,male,0,1,faces,A,female,VS,F,33,J12,134.576171875
0,1,0,26452,2.201171875,0.529296875,9,0,12,66,11,1267.57006835938,326.152130126953,0,1,faces,female,0,1,faces,A,female,VS,F,33,J12,134.576171875
0,1,0,26453,2.759765625,0.482421875,10,0,14,78,12,1352.82739257812,654.777587890625,0,1,faces,female,0,1,faces,A,female,VS,F,33,J12,134.576171875
0,1,0,26454,3.259765625,0.201171875,11,0,13,68,13,1248.91540527344,533.727905273438,0,1,faces,female,0,1,faces,A,female,VS,F,33,J12,134.576171875
0,1,0,26456,3.7890625,0.1484375,12,0,6,34,15,908.163330078125,724.272644042969,0,1,objects,big,0,1,faces,A,female,VS,F,33,J12,134.576171875
0,1,0,26457,3.947265625,0.421875,13,0,9,42,16,942.81884765625,681.251892089844,0,1,faces,male,0,1,faces,A,female,VS,F,33,J12,134.576171875
1,1,0,26475,0.19921875,0.208984375,1,1,3,14,1,706.172241210938,572.119934082031,0,1,objects,small,0,1,objects,P,small,VS,O,34,J12,138.775390625
0,1,0,26476,0.4375,0.154296875,2,1,7,30,2,844.170959472656,366.941436767578,0,1,objects,big,0,1,objects,P,small,VS,O,34,J12,138.775390625
0,1,0,26478,0.80078125,0.185546875,3,1,9,37,4,978.444641113281,163.776382446289,0,1,faces,male,0,1,objects,P,small,VS,O,34,J12,138.775390625
0,1,1,26479,1.025390625,0.201171875,4,1,13,65,5,1297.67553710938,197.130142211914,0,1,faces,male,0,1,objects,P,small,VS,O,34,J12,138.775390625
0,1,0,26481,1.501953125,0.376953125,5,0,14,76,7,1377.43957519531,451.028991699219,0,1,faces,female,0,1,objects,P,small,VS,O,34,J12,138.775390625
0,1,0,26482,1.890625,0.208984375,6,0,15,77,8,1348.30969238281,528.112426757812,0,1,faces,female,0,1,objects,P,small,VS,O,34,J12,138.775390625
0,1,0,26483,2.14453125,0.251953125,7,0,10,44,9,959.30126953125,798.889465332031,0,1,faces,male,0,1,objects,P,small,VS,O,34,J12,138.775390625
0,1,0,26485,2.5625,0.154296875,8,0,6,25,11,736.093872070312,775.103515625,0,1,faces,female,0,1,objects,P,small,VS,O,34,J12,138.775390625
0,1,0,26486,2.73046875,0.267578125,9,0,5,23,12,725.871765136719,581.220947265625,0,1,faces,female,0,1,objects,P,small,VS,O,34,J12,138.775390625
2,1,0,26487,3.009765625,0.416015625,10,0,3,14,13,639.197570800781,561.03271484375,0,1,objects,small,0,1,objects,P,small,VS,O,34,J12,138.775390625
0,1,0,26489,3.8359375,0.138671875,11,0,8,35,15,909.084045410156,818.243591308594,0,1,faces,male,0,1,objects,P,small,VS,O,34,J12,138.775390625
0,1,0,26508,0.490234375,0.134765625,1,1,5,26,3,711.163818359375,843.219970703125,0,1,objects,big,1,1,faces,P,female,VS,F,35,J12,142.974609375
0,1,0,26512,1.16796875,0.22265625,2,1,1,10,7,640.397338867188,158.705322265625,0,1,faces,female,1,1,faces,P,female,VS,F,35,J12,142.974609375
0,1,0,26513,1.4140625,0.203125,3,1,6,29,8,903.153930664062,212.242263793945,0,1,objects,small,1,1,faces,P,female,VS,F,35,J12,142.974609375
1,1,0,26514,1.646484375,0.166015625,4,1,9,46,9,1069.130859375,171.166564941406,0,1,faces,female,1,1,faces,P,female,VS,F,35,J12,142.974609375
1,0,0,26515,1.826171875,0.46875,5,0,7,38,10,963.346374511719,227.594680786133,1,0,NaN,NaN,1,1,faces,P,female,VS,F,35,J12,142.974609375
2,0,0,26516,2.330078125,0.33984375,6,0,9,46,11,1070.14819335938,147.602096557617,0,1,faces,female,1,1,faces,P,female,VS,F,35,J12,142.974609375
2,0,0,26517,2.69921875,0.2421875,7,0,7,38,12,952.271484375,227.955001831055,1,0,NaN,NaN,1,1,faces,P,female,VS,F,35,J12,142.974609375
0,0,0,26519,3.158203125,0.55078125,8,0,15,78,14,1353.8681640625,651.875183105469,0,1,faces,female,1,1,faces,P,female,VS,F,35,J12,142.974609375
3,0,1,26520,3.74609375,0.173828125,9,0,7,38,15,923.080993652344,189.866622924805,1,0,NaN,NaN,1,1,faces,P,female,VS,F,35,J12,142.974609375
1,1,0,26535,0.234375,0.26953125,1,1,8,40,1,932.885070800781,439.079986572266,0,1,faces,male,0,1,faces,A,female,VS,I,36,J12,147.173828125
0,1,0,26536,0.51953125,0.2421875,2,1,6,33,2,837.915954589844,628.014770507812,0,1,faces,female,0,1,faces,A,female,VS,I,36,J12,147.173828125
0,1,0,26539,1.236328125,0.228515625,3,1,1,3,5,540.420776367188,345.625793457031,0,1,faces,female,0,1,faces,A,female,VS,I,36,J12,147.173828125
0,1,0,26541,1.654296875,0.2421875,4,1,7,38,7,975.537414550781,221.440826416016,0,1,faces,female,0,1,faces,A,female,VS,I,36,J12,147.173828125
0,1,0,26542,1.9375,0.2734375,5,0,14,73,8,1342.98168945312,186.307647705078,0,1,faces,male,0,1,faces,A,female,VS,I,36,J12,147.173828125
0,1,0,26545,2.701171875,0.2109375,6,0,15,75,11,1370.49682617188,339.164886474609,0,1,objects,small,0,1,faces,A,female,VS,I,36,J12,147.173828125
0,1,0,26546,2.9453125,0.212890625,7,0,13,68,12,1277.48522949219,516.06884765625,0,1,faces,male,0,1,faces,A,female,VS,I,36,J12,147.173828125
0,1,0,26547,3.17578125,0.171875,8,0,9,50,13,1084.15832519531,549.069519042969,0,1,objects,small,0,1,faces,A,female,VS,I,36,J12,147.173828125
2,1,0,26548,3.36328125,0.232421875,9,0,8,40,14,944.278259277344,457.436065673828,0,1,faces,male,0,1,faces,A,female,VS,I,36,J12,147.173828125
0,1,0,26549,3.626953125,0.25,10,0,12,66,15,1280.52233886719,372.742340087891,0,1,faces,male,0,1,faces,A,female,VS,I,36,J12,147.173828125
0,1,1,26575,0.197265625,0.150390625,1,1,4,33,1,834.999267578125,632.685485839844,0,1,objects,big,0,1,objects,A,big,EX,O,37,J12,151.373046875
1,1,0,26577,0.7578125,0.244140625,2,1,8,43,3,948.247924804688,741.801940917969,0,1,objects,big,0,1,objects,A,big,EX,O,37,J12,151.373046875
0,1,0,26578,1.015625,0.341796875,3,1,6,40,4,983.271606445312,480.714111328125,0,1,faces,male,0,1,objects,A,big,EX,O,37,J12,151.373046875
0,1,0,26579,1.392578125,0.34375,4,1,1,3,5,543.866638183594,344.979034423828,0,1,objects,small,0,1,objects,A,big,EX,O,37,J12,151.373046875
0,1,0,26583,3.16796875,0.126953125,5,0,9,45,9,1001.02728271484,987.125183105469,0,1,faces,female,0,1,objects,A,big,EX,O,37,J12,151.373046875
2,1,0,26585,3.560546875,0.18359375,6,0,8,43,11,913.604064941406,788.710632324219,0,1,objects,big,0,1,objects,A,big,EX,O,37,J12,151.373046875
0,1,0,26587,3.966796875,0.3984375,7,0,2,10,13,649.067321777344,177.149139404297,0,1,faces,female,0,1,objects,A,big,EX,O,37,J12,151.373046875
1,1,0,26606,0.23828125,0.166015625,1,1,5,22,1,736.694580078125,432.781982421875,0,1,objects,big,0,0,faces,P,female,VS,I,38,J12,155.572265625
0,1,0,26607,0.41796875,0.2734375,2,1,7,29,2,879.793823242188,238.241455078125,0,1,faces,male,0,0,faces,P,female,VS,I,38,J12,155.572265625
0,1,0,26609,0.95703125,0.236328125,3,1,10,42,4,976.632385253906,625.835021972656,0,1,faces,male,0,0,faces,P,female,VS,I,38,J12,155.572265625
0,1,1,26611,2.458984375,0.1640625,4,1,11,45,6,944.90771484375,980.743835449219,0,1,faces,female,0,0,faces,P,female,VS,I,38,J12,155.572265625
0,1,0,26613,2.779296875,0.169921875,5,0,3,15,8,689.519958496094,629.294921875,0,1,objects,small,0,0,faces,P,female,VS,I,38,J12,155.572265625
0,1,0,26614,2.95703125,0.3359375,6,0,2,14,9,664.861328125,534.197204589844,0,1,faces,female,0,0,faces,P,female,VS,I,38,J12,155.572265625
2,1,0,26615,3.306640625,0.181640625,7,0,5,22,10,764.352600097656,459.501373291016,0,1,objects,big,0,0,faces,P,female,VS,I,38,J12,155.572265625
1,1,1,26633,0.189453125,0.103515625,1,1,8,40,1,937.328857421875,482.851531982422,0,1,objects,small,0,1,objects,A,small,EX,O,39,J12,159.771484375
2,1,0,26640,1.88671875,0.193359375,2,1,8,40,8,994.039245605469,443.811645507812,0,1,objects,small,0,1,objects,A,small,EX,O,39,J12,159.771484375
0,1,0,26641,2.095703125,0.21484375,3,1,7,31,9,905.0771484375,438.573638916016,0,1,faces,female,0,1,objects,A,small,EX,O,39,J12,159.771484375
0,1,0,26643,2.51953125,0.19921875,4,1,4,14,11,670.890808105469,560.543212890625,0,1,objects,small,0,1,objects,A,small,EX,O,39,J12,159.771484375
0,1,1,26644,3.28125,0.146484375,5,0,11,52,12,1018.99304199219,747.433410644531,0,1,faces,male,0,1,objects,A,small,EX,O,39,J12,159.771484375
0,1,1,26656,0.37109375,0.384765625,1,1,5,24,2,736.354553222656,599.386779785156,0,1,faces,male,1,0,faces,P,female,VS,I,40,J12,163.970703125
0,1,0,26658,0.978515625,0.197265625,2,1,2,15,4,625.765991210938,668.75146484375,0,1,faces,male,1,0,faces,P,female,VS,I,40,J12,163.970703125
0,1,1,26659,1.197265625,0.166015625,3,1,1,12,5,694.836791992188,293.573547363281,0,1,faces,male,1,0,faces,P,female,VS,I,40,J12,163.970703125
0,1,0,26661,1.587890625,0.572265625,4,1,9,55,7,1198.62219238281,162.90559387207,0,1,faces,female,1,0,faces,P,female,VS,I,40,J12,163.970703125
0,1,0,26662,2.1875,0.19921875,5,0,12,64,8,1297.65966796875,145.232284545898,1,0,NaN,NaN,1,0,faces,P,female,VS,I,40,J12,163.970703125
0,1,0,26663,2.400390625,0.216796875,6,0,13,66,9,1278.92309570312,375.146514892578,0,1,faces,female,1,0,faces,P,female,VS,I,40,J12,163.970703125
0,1,0,26665,3.16015625,0.162109375,7,0,8,52,11,1074.39978027344,787.472961425781,0,1,faces,male,1,0,faces,P,female,VS,I,40,J12,163.970703125
1,1,1,26686,0.345703125,0.185546875,1,1,3,24,2,750.867126464844,612.192749023438,0,1,faces,female,0,1,faces,A,male,EX,F,41,J12,168.169921875
0,1,0,26689,1.0625,0.3046875,2,1,11,54,5,1054.39709472656,914.490112304688,0,1,faces,male,0,1,faces,A,male,EX,F,41,J12,168.169921875
0,1,0,26690,1.39453125,0.25390625,3,1,14,71,6,1231.6904296875,795.857421875,0,1,faces,female,0,1,faces,A,male,EX,F,41,J12,168.169921875
0,1,0,26692,1.89453125,0.228515625,4,1,13,67,8,1295.27966308594,465.043304443359,0,1,objects,small,0,1,faces,A,male,EX,F,41,J12,168.169921875
0,1,0,26693,2.14453125,0.369140625,5,0,9,47,9,1090.27416992188,261.550567626953,0,1,faces,male,0,1,faces,A,male,EX,F,41,J12,168.169921875
0,1,0,26694,2.53125,0.27734375,6,0,5,28,10,896.394836425781,150.420623779297,0,1,faces,male,0,1,faces,A,male,EX,F,41,J12,168.169921875
0,1,0,26695,2.8359375,0.216796875,7,0,2,19,11,771.522521972656,162.418884277344,0,1,objects,small,0,1,faces,A,male,EX,F,41,J12,168.169921875
0,1,0,26696,3.08984375,0.34375,8,0,1,14,12,615.88232421875,543.663024902344,0,1,faces,female,0,1,faces,A,male,EX,F,41,J12,168.169921875
2,1,1,26697,3.451171875,0.1328125,9,0,3,24,13,802.163330078125,643.471618652344,0,1,faces,female,0,1,faces,A,male,EX,F,41,J12,168.169921875
0,1,0,26712,0.208984375,0.16796875,1,1,3,13,1,691.620971679688,431.198181152344,0,1,objects,small,0,1,faces,P,female,VS,F,42,J12,172.369140625
0,1,0,26713,0.39453125,0.271484375,2,1,1,3,2,536.28173828125,346.871948242188,0,1,faces,female,0,1,faces,P,female,VS,F,42,J12,172.369140625
0,1,1,26714,0.69140625,0.16015625,3,1,6,39,3,934.542419433594,367.6552734375,0,1,faces,female,0,1,faces,P,female,VS,F,42,J12,172.369140625
0,1,0,26716,3.009765625,0.134765625,4,1,5,25,5,719.335388183594,755.359252929688,0,1,objects,big,0,1,faces,P,female,VS,F,42,J12,172.369140625
1,0,1,26731,0.19921875,0.240234375,1,1,5,23,1,725.14599609375,576.433654785156,1,0,NaN,NaN,1,1,objects,P,big,VS,O,43,J12,176.568359375
2,0,0,26734,2.3203125,1.73828125,2,1,5,23,4,760.033203125,561.034912109375,1,0,NaN,NaN,1,1,objects,P,big,VS,O,43,J12,176.568359375
0,1,0,26750,2.369140625,0.287109375,1,1,1,2,3,533.807006835938,260.8466796875,0,1,faces,female,0,1,faces,P,female,VS,I,44,J12,180.767578125
0,1,0,26751,2.689453125,0.318359375,2,1,3,7,4,540.253234863281,759.694946289062,0,1,faces,female,0,1,faces,P,female,VS,I,44,J12,180.767578125
0,1,0,26752,3.041015625,0.140625,3,1,7,34,5,815.209228515625,710.887023925781,0,1,faces,male,0,1,faces,P,female,VS,I,44,J12,180.767578125
0,1,0,26753,3.5546875,0.171875,4,1,11,66,6,1281.20751953125,327.203552246094,0,1,objects,big,0,1,faces,P,female,VS,I,44,J12,180.767578125
0,1,0,26771,0.505859375,0.130859375,1,1,8,39,4,938.44921875,340.134399414062,0,1,objects,small,0,0,faces,A,female,EX,I,45,J12,184.966796875
0,1,0,26772,0.66015625,0.201171875,2,1,6,30,5,862.959716796875,336.739227294922,0,1,objects,big,0,0,faces,A,female,EX,I,45,J12,184.966796875
0,1,0,26774,1.0390625,0.220703125,3,1,1,1,7,578.497375488281,140.293548583984,0,1,objects,big,0,0,faces,A,female,EX,I,45,J12,184.966796875
1,1,0,26781,0.3671875,0.107421875,1,1,4,21,1,741.685424804688,370.054412841797,0,1,objects,small,0,0,faces,P,male,VS,F,46,J12,189.166015625
0,1,0,26782,0.494140625,0.1875,2,1,1,2,2,533.784362792969,261.931274414062,0,1,faces,female,0,0,faces,P,male,VS,F,46,J12,189.166015625
0,1,0,26783,0.7265625,0.189453125,3,1,6,37,3,968.448364257812,163.496932983398,0,1,faces,male,0,0,faces,P,male,VS,F,46,J12,189.166015625
0,1,0,26784,0.95703125,0.193359375,4,1,13,73,4,1328.5478515625,165.538101196289,0,1,objects,big,0,0,faces,P,male,VS,F,46,J12,189.166015625
0,1,0,26785,1.1640625,0.169921875,5,0,11,65,5,1277.26513671875,253.45817565918,0,1,objects,big,0,0,faces,P,male,VS,F,46,J12,189.166015625
0,1,0,26786,1.384765625,0.3203125,6,0,7,42,6,923.530517578125,619.767700195312,0,1,faces,female,0,0,faces,P,male,VS,F,46,J12,189.166015625
2,1,0,26789,3.60546875,0.166015625,7,0,4,21,9,789.10107421875,388.593231201172,0,1,objects,small,0,0,faces,P,male,VS,F,46,J12,189.166015625
0,1,0,26804,0.537109375,0.16015625,1,1,4,20,2,774.033081054688,255.033279418945,0,1,faces,female,0,1,faces,A,female,EX,F,47,J12,193.365234375
0,1,0,26805,0.71484375,0.193359375,2,1,8,38,3,1009.79614257812,229.462966918945,0,1,faces,male,0,1,faces,A,female,EX,F,47,J12,193.365234375
0,1,0,26806,0.921875,0.291015625,3,1,13,55,4,1131.82641601562,144.987487792969,0,1,objects,big,0,1,faces,A,female,EX,F,47,J12,193.365234375
0,1,0,26808,1.71484375,0.234375,4,1,15,59,6,1173.74755859375,543.711730957031,0,1,objects,big,0,1,faces,A,female,EX,F,47,J12,193.365234375
1,0,0,26821,0.234375,0.24609375,1,1,6,13,1,673.163391113281,421.624206542969,1,0,NaN,NaN,1,1,faces,P,female,VS,F,48,J12,197.564453125
0,0,0,26822,0.5,0.171875,2,1,1,1,2,567.288879394531,179.663131713867,0,1,faces,female,1,1,faces,P,female,VS,F,48,J12,197.564453125
2,0,0,26823,0.693359375,0.873046875,3,1,6,13,3,652.372009277344,460.973968505859,1,0,NaN,NaN,1,1,faces,P,female,VS,F,48,J12,197.564453125
0,0,0,26824,1.615234375,0.58984375,4,1,12,68,4,1295.37878417969,530.121154785156,0,1,faces,male,1,1,faces,P,female,VS,F,48,J12,197.564453125
3,0,0,26829,2.9609375,1.33203125,5,0,6,13,9,656.84716796875,449.927642822266,1,0,NaN,NaN,1,1,faces,P,female,VS,F,48,J12,197.564453125
0,1,0,26846,0.18359375,0.287109375,1,1,5,31,1,814.603332519531,464.358367919922,0,1,faces,male,1,1,faces,P,male,VS,F,49,J12,201.763671875
0,0,0,26848,0.701171875,0.28125,2,1,3,11,3,622.619567871094,270.256195068359,1,0,NaN,NaN,1,1,faces,P,male,VS,F,49,J12,201.763671875
0,0,0,26851,1.609375,0.18359375,3,1,11,64,6,1247.63195800781,146.884384155273,0,1,faces,male,1,1,faces,P,male,VS,F,49,J12,201.763671875
0,1,0,26867,0.662109375,0.23046875,1,1,1,1,3,527.008911132812,167.015258789062,0,1,objects,small,1,0,faces,P,female,VS,I,50,J12,205.962890625
0,1,0,26868,0.931640625,0.275390625,2,1,5,28,4,871.766479492188,149.958236694336,0,1,faces,female,1,0,faces,P,female,VS,I,50,J12,205.962890625
0,1,0,26869,1.24609375,0.21875,3,1,9,55,5,1178.13220214844,173.895477294922,0,1,faces,male,1,0,faces,P,female,VS,I,50,J12,205.962890625
0,1,0,26870,1.498046875,0.1796875,4,1,11,70,6,1258.46948242188,696.295532226562,0,1,faces,male,1,0,faces,P,female,VS,I,50,J12,205.962890625
0,1,0,26873,2.107421875,0.169921875,5,0,7,33,9,851.915771484375,634.5947265625,0,1,faces,female,1,0,faces,P,female,VS,I,50,J12,205.962890625
0,1,0,26875,2.484375,0.25,6,0,6,30,11,843.437927246094,377.579315185547,0,1,faces,male,1,0,faces,P,female,VS,I,50,J12,205.962890625
0,0,0,26880,3.73828125,0.337890625,7,0,15,80,16,1373.57202148438,827.358581542969,1,0,NaN,NaN,1,0,faces,P,female,VS,I,50,J12,205.962890625
0,1,0,26896,1.650390625,0.2265625,1,1,7,58,4,1148.44299316406,475.461486816406,0,1,faces,male,0,1,objects,P,big,VS,O,51,J12,210.162109375
0,1,0,26898,2.318359375,0.25,2,1,12,70,6,1287.40747070312,752.093811035156,0,1,faces,female,0,1,objects,P,big,VS,O,51,J12,210.162109375
0,1,0,26899,2.58203125,0.193359375,3,1,15,78,7,1381.21423339844,675.252136230469,0,1,faces,female,0,1,objects,P,big,VS,O,51,J12,210.162109375
0,1,0,26900,2.81640625,0.248046875,4,1,3,6,8,539.167541503906,621.366516113281,0,1,faces,female,0,1,objects,P,big,VS,O,51,J12,210.162109375
0,1,1,26914,0.01953125,0.166015625,1,1,6,31,1,901.778137207031,404.499450683594,0,1,objects,big,0,1,faces,A,male,EX,F,52,J12,214.361328125
0,1,0,26916,0.453125,0.390625,2,1,3,11,3,656.402404785156,262.716674804688,0,1,faces,male,0,1,faces,A,male,EX,F,52,J12,214.361328125
1,1,0,26918,1.15234375,0.29296875,3,1,13,68,5,1273.77319335938,555.416564941406,0,1,faces,female,0,1,faces,A,male,EX,F,52,J12,214.361328125
0,1,0,26919,1.470703125,0.173828125,4,1,14,77,6,1365.43591308594,575.277282714844,0,1,faces,male,0,1,faces,A,male,EX,F,52,J12,214.361328125
2,1,0,26920,1.658203125,0.451171875,5,0,13,68,7,1286.45300292969,581.677856445312,0,1,faces,female,0,1,faces,A,male,EX,F,52,J12,214.361328125
0,1,0,26922,2.478515625,0.349609375,6,0,9,35,9,820.454345703125,795.04296875,0,1,faces,male,0,1,faces,A,male,EX,F,52,J12,214.361328125
0,1,0,26923,2.83984375,0.267578125,7,0,7,33,10,853.462524414062,653.673706054688,0,1,objects,big,0,1,faces,A,male,EX,F,52,J12,214.361328125
0,1,0,26944,0.18359375,0.20703125,1,1,4,14,1,691.585998535156,575.561096191406,0,1,faces,female,1,1,objects,P,big,VS,O,53,J12,218.560546875
1,1,0,26945,0.404296875,0.203125,2,1,3,12,2,691.515869140625,364.973327636719,0,1,faces,female,1,1,objects,P,big,VS,O,53,J12,218.560546875
1,0,0,26948,0.984375,0.48828125,3,1,10,52,5,1060.42224121094,783.782653808594,1,0,NaN,NaN,1,1,objects,P,big,VS,O,53,J12,218.560546875
1,0,0,26949,1.51171875,0.208984375,4,1,15,79,6,1322.52746582031,786.6953125,0,1,faces,female,1,1,objects,P,big,VS,O,53,J12,218.560546875
2,0,0,26950,1.7578125,0.2265625,5,0,10,52,7,1033.26513671875,758.812622070312,1,0,NaN,NaN,1,1,objects,P,big,VS,O,53,J12,218.560546875
2,0,0,26951,2.0234375,0.27734375,6,0,15,79,8,1347.08532714844,713.728210449219,0,1,faces,female,1,1,objects,P,big,VS,O,53,J12,218.560546875
3,0,0,26952,2.3203125,0.158203125,7,0,10,52,9,1022.48156738281,784.842102050781,1,0,NaN,NaN,1,1,objects,P,big,VS,O,53,J12,218.560546875
0,0,0,26953,2.51171875,0.685546875,8,0,13,74,10,1359.26928710938,281.5703125,0,1,faces,male,1,1,objects,P,big,VS,O,53,J12,218.560546875
2,0,1,26954,3.25,0.146484375,9,0,3,12,11,613.250366210938,364.035614013672,0,1,faces,female,1,1,objects,P,big,VS,O,53,J12,218.560546875
0,1,0,26965,0.22265625,0.146484375,1,1,8,41,1,923.426879882812,575.209350585938,0,1,objects,big,0,1,faces,A,male,VS,F,54,J12,222.759765625
0,1,0,26967,0.560546875,0.18359375,2,1,9,43,3,931.40673828125,780.182495117188,0,1,faces,female,0,1,faces,A,male,VS,F,54,J12,222.759765625
0,1,0,26970,1.240234375,0.185546875,3,1,15,78,6,1363.60620117188,681.643737792969,0,1,faces,male,0,1,faces,A,male,VS,F,54,J12,222.759765625
0,1,0,26971,1.458984375,0.38671875,4,1,7,38,7,950.799377441406,274.630554199219,0,1,faces,female,0,1,faces,A,male,VS,F,54,J12,222.759765625
0,1,0,26972,1.884765625,0.115234375,5,0,3,11,8,645.495788574219,284.306396484375,0,1,objects,big,0,1,faces,A,male,VS,F,54,J12,222.759765625
0,1,0,26974,2.298828125,0.2265625,6,0,1,4,10,525.754943847656,455.449890136719,0,1,objects,small,0,1,faces,A,male,VS,F,54,J12,222.759765625
0,1,0,26978,3.279296875,0.154296875,7,0,6,33,14,818.864074707031,674.115478515625,0,1,faces,male,0,1,faces,A,male,VS,F,54,J12,222.759765625
0,1,0,26979,3.46484375,0.31640625,8,0,11,56,15,1166.75170898438,285.654968261719,0,1,faces,male,0,1,faces,A,male,VS,F,54,J12,222.759765625
0,1,0,26997,0.287109375,0.279296875,1,1,8,51,2,1060.50244140625,652.197875976562,0,1,objects,small,0,1,objects,A,big,VS,O,55,J12,226.958984375
0,1,0,27000,1.01953125,0.171875,2,1,11,57,5,1151.81701660156,363.538726806641,0,1,faces,male,0,1,objects,A,big,VS,O,55,J12,226.958984375
1,1,0,27001,1.205078125,0.25390625,3,1,7,48,6,1044.73132324219,349.321258544922,0,1,objects,big,0,1,objects,A,big,VS,O,55,J12,226.958984375
0,1,0,27002,1.47265625,0.12109375,4,1,6,47,7,1099.5126953125,216.017242431641,0,1,faces,female,0,1,objects,A,big,VS,O,55,J12,226.958984375
0,1,0,27003,1.607421875,0.154296875,5,0,10,55,8,1179.86877441406,167.070693969727,0,1,faces,female,0,1,objects,A,big,VS,O,55,J12,226.958984375
0,1,0,27004,1.78125,0.283203125,6,0,4,37,9,948.636657714844,160.879638671875,0,1,objects,big,0,1,objects,A,big,VS,O,55,J12,226.958984375
0,1,0,27005,2.109375,0.23046875,7,0,1,1,10,541.140319824219,177.033905029297,0,1,faces,male,0,1,objects,A,big,VS,O,55,J12,226.958984375
0,1,0,27007,2.658203125,0.234375,8,0,14,68,12,1245.03125,558.103698730469,0,1,faces,male,0,1,objects,A,big,VS,O,55,J12,226.958984375
2,1,0,27011,3.8203125,0.580078125,9,0,7,48,16,1055.50634765625,366.446655273438,0,1,objects,big,0,1,objects,A,big,VS,O,55,J12,226.958984375
0,1,0,27030,0.24609375,0.15234375,1,1,2,14,2,677.2626953125,508.526885986328,0,1,faces,female,0,1,objects,P,small,VS,O,56,J12,231.158203125
0,1,0,27033,0.8671875,0.201171875,2,1,8,36,5,810.605224609375,928.990051269531,0,1,faces,female,0,1,objects,P,small,VS,O,56,J12,231.158203125
0,1,0,27035,2.228515625,0.158203125,3,1,12,71,7,1231.59020996094,839.141906738281,0,1,objects,big,0,1,objects,P,small,VS,O,56,J12,231.158203125
0,1,0,27036,2.40234375,0.1953125,4,1,11,70,8,1291.47937011719,694.500732421875,0,1,faces,male,0,1,objects,P,small,VS,O,56,J12,231.158203125
0,1,0,27038,2.7734375,0.13671875,5,0,13,73,10,1393.12707519531,189.328475952148,0,1,faces,male,0,1,objects,P,small,VS,O,56,J12,231.158203125
0,1,0,27040,3.119140625,0.111328125,6,0,6,29,12,843.206604003906,269.000152587891,0,1,faces,male,0,1,objects,P,small,VS,O,56,J12,231.158203125
0,1,0,27055,0.568359375,0.21484375,1,1,5,22,3,731.969787597656,452.462677001953,0,1,objects,big,1,1,faces,P,female,VS,I,57,J12,235.357421875
0,1,0,27056,0.8046875,0.18359375,2,1,12,48,4,1061.580078125,299.703643798828,0,1,faces,male,1,1,faces,P,female,VS,I,57,J12,235.357421875
1,1,0,27057,1,0.189453125,3,1,14,56,5,1155.73071289062,253.603775024414,1,0,NaN,NaN,1,1,faces,P,female,VS,I,57,J12,235.357421875
0,1,0,27058,1.21875,0.158203125,4,1,4,19,6,782.713012695312,179.290512084961,0,1,faces,female,1,1,faces,P,female,VS,I,57,J12,235.357421875
2,0,0,27059,1.416015625,1.447265625,5,0,14,56,7,1133.42236328125,253.872802734375,1,0,NaN,NaN,1,1,faces,P,female,VS,I,57,J12,235.357421875
0,0,0,27065,3.927734375,0.328125,6,0,1,6,13,510.936004638672,676.570617675781,0,1,faces,female,1,1,faces,P,female,VS,I,57,J12,235.357421875
0,1,0,27085,0.224609375,0.302734375,1,1,6,33,1,842.371337890625,674.036376953125,0,1,objects,big,0,0,faces,A,female,EX,F,58,J12,239.556640625
0,1,0,27091,2.58203125,0.162109375,2,1,12,74,7,1374.76391601562,267.992218017578,0,1,faces,female,0,0,faces,A,female,EX,F,58,J12,239.556640625
0,1,0,27092,2.7578125,0.720703125,3,1,10,64,8,1273.10498046875,188.147277832031,0,1,faces,female,0,0,faces,A,female,EX,F,58,J12,239.556640625
1,0,0,27107,1.22265625,0.841796875,1,1,8,33,7,868.575622558594,688.526977539062,1,0,NaN,NaN,1,1,faces,P,male,VS,F,59,J12,243.755859375
0,0,0,27110,2.462890625,0.197265625,2,1,6,28,10,814.68798828125,186.781890869141,0,1,faces,female,1,1,faces,P,male,VS,F,59,J12,243.755859375
0,0,0,27112,2.845703125,0.203125,3,1,11,55,12,1174.38122558594,181.919738769531,0,1,faces,male,1,1,faces,P,male,VS,F,59,J12,243.755859375
0,0,1,27113,3.083984375,0.193359375,4,1,14,68,13,1233.99694824219,576.346252441406,0,1,faces,female,1,1,faces,P,male,VS,F,59,J12,243.755859375
2,0,0,27115,3.537109375,0.779296875,5,0,8,33,15,860.205383300781,676.106384277344,1,0,NaN,NaN,1,1,faces,P,male,VS,F,59,J12,243.755859375
0,1,0,27142,0.453125,0.1875,1,1,3,5,5,521.509887695312,578.008178710938,0,1,faces,male,0,1,objects,A,small,EX,O,60,J12,247.955078125
1,1,0,27143,0.658203125,0.349609375,2,1,2,3,6,509.655731201172,310.942504882812,0,1,faces,female,0,1,objects,A,small,EX,O,60,J12,247.955078125
0,1,1,27144,1.048828125,0.142578125,3,1,8,38,7,931.38623046875,259.486602783203,0,1,objects,small,0,1,objects,A,small,EX,O,60,J12,247.955078125
0,1,0,27146,1.50390625,0.271484375,4,1,12,66,9,1282.35534667969,379.415161132812,0,1,faces,male,0,1,objects,A,small,EX,O,60,J12,247.955078125
2,1,0,27154,3.650390625,0.216796875,5,0,2,3,17,515.820922851562,354.721313476562,0,1,faces,female,0,1,objects,A,small,EX,O,60,J12,247.955078125
0,1,0,27170,1.0078125,0.271484375,1,1,1,1,1,554.003967285156,176.531890869141,0,1,objects,big,0,1,objects,A,small,VS,O,61,J12,252.154296875
0,1,0,27171,1.328125,0.119140625,2,1,2,9,2,565.86279296875,938.818542480469,0,1,faces,male,0,1,objects,A,small,VS,O,61,J12,252.154296875
0,1,0,27174,1.84375,0.2421875,3,1,7,43,5,1007.43377685547,776.382263183594,0,1,faces,male,0,1,objects,A,small,VS,O,61,J12,252.154296875
0,1,0,27175,2.1015625,0.1796875,4,1,8,50,6,1072.28820800781,588.419006347656,0,1,objects,small,0,1,objects,A,small,VS,O,61,J12,252.154296875
0,1,0,27177,2.529296875,0.166015625,5,0,14,74,8,1346.30102539062,244.600509643555,0,1,faces,male,0,1,objects,A,small,VS,O,61,J12,252.154296875
0,1,0,27180,3.0859375,0.126953125,6,0,6,39,11,979.741394042969,320.4775390625,0,1,faces,female,0,1,objects,A,small,VS,O,61,J12,252.154296875
0,1,0,27181,3.24609375,0.390625,7,0,4,21,12,744.832824707031,349.198822021484,0,1,objects,small,0,1,objects,A,small,VS,O,61,J12,252.154296875
0,1,1,27192,0.265625,0.17578125,1,1,8,49,2,1073.14453125,440.834106445312,0,1,faces,male,0,1,faces,A,male,VS,I,62,J12,256.353515625
0,1,0,27193,0.470703125,0.224609375,2,1,3,21,3,757.639221191406,361.673004150391,0,1,faces,female,0,1,faces,A,male,VS,I,62,J12,256.353515625
0,1,0,27196,1.220703125,0.28125,3,1,1,4,6,520.133361816406,487.244567871094,0,1,faces,male,0,1,faces,A,male,VS,I,62,J12,256.353515625
0,1,0,27197,1.54296875,0.27734375,4,1,5,27,7,810.288391113281,918.091674804688,0,1,faces,female,0,1,faces,A,male,VS,I,62,J12,256.353515625
0,1,0,27199,2.009765625,0.21875,5,0,10,60,9,1161.94909667969,672.261169433594,0,1,objects,big,0,1,faces,A,male,VS,I,62,J12,256.353515625
1,1,0,27200,2.244140625,0.162109375,6,0,9,58,10,1170.99768066406,477.868560791016,0,1,faces,male,0,1,faces,A,male,VS,I,62,J12,256.353515625
2,1,0,27204,3.251953125,0.212890625,7,0,9,58,14,1173.23388671875,463.996124267578,0,1,faces,male,0,1,faces,A,male,VS,I,62,J12,256.353515625
0,1,0,27217,0.443359375,0.15625,1,1,4,23,1,711.713684082031,515.378784179688,0,1,objects,big,0,1,faces,A,female,VS,I,63,J12,260.552734375
1,1,0,27219,0.861328125,0.171875,2,1,5,30,3,883.599975585938,369.367218017578,0,1,faces,female,0,1,faces,A,female,VS,I,63,J12,260.552734375
0,1,0,27220,1.0546875,0.1015625,3,1,7,39,4,935.002868652344,361.355987548828,0,1,faces,female,0,1,faces,A,female,VS,I,63,J12,260.552734375
2,1,0,27221,1.16796875,0.18359375,4,1,5,30,5,829.896057128906,381.803070068359,0,1,faces,female,0,1,faces,A,female,VS,I,63,J12,260.552734375
0,1,0,27222,1.375,0.33203125,5,0,8,46,6,1025.89709472656,179.818542480469,0,1,faces,male,0,1,faces,A,female,VS,I,63,J12,260.552734375
1,1,1,27224,1.89453125,0.158203125,6,0,14,76,8,1328.86547851562,417.873107910156,0,1,faces,female,0,1,faces,A,female,VS,I,63,J12,260.552734375
0,1,0,27226,2.46484375,0.236328125,7,0,13,69,10,1267.93969726562,683.328918457031,0,1,faces,male,0,1,faces,A,female,VS,I,63,J12,260.552734375
2,1,0,27228,2.8828125,0.728515625,8,0,14,76,12,1352.93127441406,469.915435791016,0,1,faces,female,0,1,faces,A,female,VS,I,63,J12,260.552734375
0,1,0,27248,0.86328125,0.341796875,1,1,3,13,4,663.545166015625,407.085388183594,0,1,faces,male,0,1,faces,A,male,EX,I,64,J12,264.751953125
0,1,0,27250,1.59375,0.25390625,2,1,6,29,6,864.976623535156,257.838348388672,0,1,objects,big,0,1,faces,A,male,EX,I,64,J12,264.751953125
0,1,0,27251,1.875,0.19140625,3,1,9,39,7,1007.48913574219,377.469055175781,0,1,objects,small,0,1,faces,A,male,EX,I,64,J12,264.751953125
0,1,0,27253,2.244140625,0.326171875,4,1,13,66,9,1296.38232421875,390.121185302734,0,1,faces,male,0,1,faces,A,male,EX,I,64,J12,264.751953125
0,1,0,27254,2.599609375,0.294921875,5,0,15,78,10,1383.39123535156,610.690490722656,0,1,faces,female,0,1,faces,A,male,EX,I,64,J12,264.751953125
0,1,0,27258,3.560546875,0.251953125,6,0,7,32,14,844.927429199219,586.919006347656,0,1,faces,male,0,1,faces,A,male,EX,I,64,J12,264.751953125
0,1,0,27274,0.193359375,0.287109375,1,1,5,15,1,702.430847167969,625.362121582031,0,1,faces,male,0,0,faces,P,female,VS,F,65,J12,268.951171875
1,1,0,27276,0.751953125,0.11328125,2,1,2,7,3,551.198852539062,692.022155761719,0,1,objects,big,0,0,faces,P,female,VS,F,65,J12,268.951171875
0,1,0,27279,2.20703125,0.228515625,3,1,14,70,6,1271.21655273438,733.169006347656,0,1,objects,big,0,0,faces,P,female,VS,F,65,J12,268.951171875
0,1,0,27280,2.46484375,0.265625,4,1,12,66,7,1286.78491210938,381.272064208984,0,1,objects,small,0,0,faces,P,female,VS,F,65,J12,268.951171875
0,1,0,27282,2.935546875,0.380859375,5,0,4,13,9,615.984436035156,478.144470214844,0,1,faces,female,0,0,faces,P,female,VS,F,65,J12,268.951171875
2,1,0,27284,3.62109375,0.224609375,6,0,2,7,11,595.973510742188,710.057250976562,0,1,objects,big,0,0,faces,P,female,VS,F,65,J12,268.951171875
0,1,0,27306,0.203125,0.1875,1,1,7,32,1,849.485046386719,561.119445800781,0,1,faces,female,0,1,objects,A,big,EX,O,66,J12,273.150390625
0,1,0,27308,1.009765625,0.3828125,2,1,10,56,3,1141.22216796875,275.951477050781,0,1,objects,small,0,1,objects,A,big,EX,O,66,J12,273.150390625
0,1,0,27310,1.705078125,0.197265625,3,1,15,81,5,1359.373046875,901.633178710938,0,1,faces,female,0,1,objects,A,big,EX,O,66,J12,273.150390625
0,1,0,27312,2.111328125,0.533203125,4,1,14,79,7,1400.5595703125,788.898193359375,0,1,objects,big,0,1,objects,A,big,EX,O,66,J12,273.150390625
0,1,1,27316,3.078125,0.126953125,5,0,2,9,11,531.352111816406,959.600219726562,0,1,faces,male,0,1,objects,A,big,EX,O,66,J12,273.150390625
0,1,0,27319,3.484375,0.1015625,6,0,8,34,14,861.029174804688,784.616516113281,0,1,faces,female,0,1,objects,A,big,EX,O,66,J12,273.150390625
0,1,0,27320,3.642578125,0.646484375,7,0,9,51,15,1087.39990234375,683.966186523438,0,1,objects,big,0,1,objects,A,big,EX,O,66,J12,273.150390625
0,1,0,27333,0.216796875,0.169921875,1,1,6,21,1,731.295593261719,361.880310058594,0,1,objects,big,0,1,faces,P,female,VS,F,67,J12,277.349609375
0,1,0,27334,0.4296875,0.185546875,2,1,3,14,2,642.699157714844,494.722778320312,0,1,faces,female,0,1,faces,P,female,VS,F,67,J12,277.349609375
0,1,0,27335,0.6484375,0.283203125,3,1,1,7,3,546.517333984375,755.413330078125,0,1,faces,female,0,1,faces,P,female,VS,F,67,J12,277.349609375
0,1,0,27336,0.94921875,0.14453125,4,1,2,9,4,529.820129394531,982.420532226562,0,1,objects,small,0,1,faces,P,female,VS,F,67,J12,277.349609375
0,1,0,27338,1.271484375,0.203125,5,0,7,35,6,821.155517578125,868.689025878906,0,1,faces,male,0,1,faces,P,female,VS,F,67,J12,277.349609375
0,1,0,27340,3.6171875,0.2734375,6,0,12,60,8,1176.0703125,689.269897460938,0,1,faces,female,0,1,faces,P,female,VS,F,67,J12,277.349609375
0,1,0,27341,3.908203125,0.470703125,7,0,11,57,9,1210.314453125,386.970855712891,0,1,faces,male,0,1,faces,P,female,VS,F,67,J12,277.349609375
0,1,0,27358,0.291015625,0.19140625,1,1,7,39,1,983.363098144531,381.810180664062,0,1,objects,big,0,1,faces,A,female,VS,F,68,J12,281.548828125
1,1,0,27359,0.494140625,0.15234375,2,1,10,48,2,1078.20251464844,336.347137451172,0,1,faces,male,0,1,faces,A,female,VS,F,68,J12,281.548828125
0,1,0,27360,0.65625,0.42578125,3,1,9,47,3,1058.94421386719,196.26969909668,0,1,faces,female,0,1,faces,A,female,VS,F,68,J12,281.548828125
0,1,0,27361,1.09765625,0.234375,4,1,13,64,4,1257.65319824219,162.43798828125,0,1,faces,female,0,1,faces,A,female,VS,F,68,J12,281.548828125
0,1,0,27362,1.734375,0.1953125,5,0,15,68,5,1269.81103515625,542.41943359375,0,1,objects,small,0,1,faces,A,female,VS,F,68,J12,281.548828125
0,1,0,27363,1.9375,0.193359375,6,0,14,67,6,1276.83361816406,471.297576904297,0,1,faces,male,0,1,faces,A,female,VS,F,68,J12,281.548828125
0,1,0,27364,2.19140625,0.21484375,7,0,3,7,7,569.473571777344,738.4326171875,0,1,objects,small,0,1,faces,A,female,VS,F,68,J12,281.548828125
0,1,0,27365,2.41796875,0.27734375,8,0,2,6,8,511.567443847656,683.098693847656,0,1,faces,female,0,1,faces,A,female,VS,F,68,J12,281.548828125
2,1,0,27370,3.810546875,0.279296875,9,0,10,48,13,1057.32409667969,361.113922119141,0,1,faces,male,0,1,faces,A,female,VS,F,68,J12,281.548828125
0,1,0,27385,0.21484375,0.169921875,1,1,5,13,1,685.3515625,429.562377929688,0,1,faces,male,0,1,faces,A,female,EX,I,69,J12,285.748046875
0,1,0,27386,0.392578125,0.140625,2,1,9,22,2,717.406311035156,448.501434326172,0,1,faces,female,0,1,faces,A,female,EX,I,69,J12,285.748046875
0,1,0,27387,0.564453125,0.1484375,3,1,4,10,3,625.78076171875,187.775268554688,0,1,objects,small,0,1,faces,A,female,EX,I,69,J12,285.748046875
0,1,0,27388,0.7265625,0.392578125,4,1,1,1,4,530.145935058594,181.600784301758,0,1,faces,male,0,1,faces,A,female,EX,I,69,J12,285.748046875
0,1,0,27389,2.162109375,0.126953125,5,0,10,45,5,935.347473144531,981.396484375,0,1,faces,female,0,1,faces,A,female,EX,I,69,J12,285.748046875
0,1,0,27394,3.25,0.734375,6,0,12,66,10,1251.2890625,386.740997314453,0,1,faces,female,0,1,faces,A,female,EX,I,69,J12,285.748046875
1,1,0,27413,0.220703125,0.12109375,1,1,5,32,1,847.170104980469,558.419494628906,0,1,faces,female,1,1,faces,P,female,VS,I,70,J12,289.947265625
0,1,0,27414,0.365234375,0.205078125,2,1,2,12,2,650.2236328125,386.201324462891,0,1,objects,big,1,1,faces,P,female,VS,I,70,J12,289.947265625
1,1,0,27416,0.822265625,0.201171875,3,1,10,47,4,1034.02392578125,197.069976806641,0,1,faces,male,1,1,faces,P,female,VS,I,70,J12,289.947265625
0,1,0,27417,1.03515625,0.130859375,4,1,6,38,5,969.325561523438,238.059707641602,0,1,faces,male,1,1,faces,P,female,VS,I,70,J12,289.947265625
2,1,0,27418,1.1796875,0.197265625,5,0,10,47,6,1091.91809082031,247.579574584961,0,1,faces,male,1,1,faces,P,female,VS,I,70,J12,289.947265625
0,1,0,27419,1.40625,0.234375,6,0,13,67,7,1268.12878417969,462.210906982422,0,1,faces,male,1,1,faces,P,female,VS,I,70,J12,289.947265625
0,0,0,27420,1.673828125,0.23828125,7,0,15,72,8,1219.56127929688,952.32763671875,1,0,NaN,NaN,1,1,faces,P,female,VS,I,70,J12,289.947265625
0,0,0,27424,2.94921875,0.181640625,8,0,8,43,12,953.053344726562,760.135009765625,0,1,objects,small,1,1,faces,P,female,VS,I,70,J12,289.947265625
2,0,0,27425,3.14453125,0.220703125,9,0,5,32,13,882.754699707031,585.582336425781,0,1,faces,female,1,1,faces,P,female,VS,I,70,J12,289.947265625
1,0,0,27426,3.376953125,0.228515625,10,0,7,41,14,958.884521484375,550.980163574219,0,1,faces,male,1,1,faces,P,female,VS,I,70,J12,289.947265625
3,0,0,27427,3.623046875,0.220703125,11,0,5,32,15,821.330749511719,569.857116699219,0,1,faces,female,1,1,faces,P,female,VS,I,70,J12,289.947265625
2,0,0,27428,3.859375,0.220703125,12,0,7,41,16,950.845886230469,551.617736816406,0,1,faces,male,1,1,faces,P,female,VS,I,70,J12,289.947265625
0,1,0,27445,0.369140625,0.25,1,1,4,15,2,687.657897949219,631.555053710938,0,1,faces,female,0,1,objects,P,big,VS,O,71,J12,294.146484375
0,1,0,27446,0.646484375,0.22265625,2,1,6,32,3,841.446899414062,564.783630371094,0,1,objects,big,0,1,objects,P,big,VS,O,71,J12,294.146484375
0,1,0,27447,0.89453125,0.25390625,3,1,8,38,4,922.087463378906,209.603942871094,0,1,faces,female,0,1,objects,P,big,VS,O,71,J12,294.146484375
0,1,0,27448,1.1640625,0.1796875,4,1,5,28,5,818.039733886719,164.603408813477,0,1,objects,small,0,1,objects,P,big,VS,O,71,J12,294.146484375
0,1,0,27451,1.79296875,0.248046875,5,0,9,50,8,1069.59741210938,585.614379882812,0,1,objects,small,0,1,objects,P,big,VS,O,71,J12,294.146484375
0,1,0,27473,0.51171875,0.365234375,1,1,4,24,3,736.853088378906,673.425964355469,0,1,faces,female,1,1,faces,P,female,VS,I,72,J12,298.345703125
0,1,0,27474,0.912109375,0.4140625,2,1,2,7,4,540.472412109375,751.744689941406,0,1,faces,female,1,1,faces,P,female,VS,I,72,J12,298.345703125
0,1,0,27478,2.15234375,0.1875,3,1,9,58,8,1209.13293457031,456.799072265625,0,1,faces,male,1,1,faces,P,female,VS,I,72,J12,298.345703125
0,1,0,27479,2.369140625,0.13671875,4,1,11,67,9,1304.58203125,480.72412109375,0,1,faces,male,1,1,faces,P,female,VS,I,72,J12,298.345703125
1,1,0,27480,2.544921875,0.162109375,5,0,14,79,10,1343.76586914062,723.894775390625,1,0,NaN,NaN,1,1,faces,P,female,VS,I,72,J12,298.345703125
0,1,0,27482,3,0.162109375,6,0,6,34,12,870.193969726562,699.460266113281,0,1,objects,small,1,1,faces,P,female,VS,I,72,J12,298.345703125
2,0,0,27484,3.306640625,0.986328125,7,0,14,79,14,1380.07604980469,788.923583984375,1,0,NaN,NaN,1,1,faces,P,female,VS,I,72,J12,298.345703125
0,1,0,27627,0.333984375,0.216796875,1,1,5,31,2,845.194396972656,475.286834716797,0,1,objects,small,0,1,objects,P,big,VS,O,73,J12,302.544921875
0,1,0,27628,0.58203125,0.228515625,2,1,2,3,3,531.033142089844,347.08740234375,0,1,faces,female,0,1,objects,P,big,VS,O,73,J12,302.544921875
0,1,0,27631,1.193359375,0.23828125,3,1,10,57,6,1163.93835449219,380.964996337891,0,1,objects,small,0,1,objects,P,big,VS,O,73,J12,302.544921875
0,1,0,27652,1.796875,0.3359375,1,1,7,29,3,864.179138183594,265.324249267578,0,1,faces,female,0,1,objects,P,big,VS,O,74,J12,306.744140625
0,1,0,27653,2.173828125,0.17578125,2,1,12,70,4,1304.02270507812,691.325134277344,0,1,faces,female,0,1,objects,P,big,VS,O,74,J12,306.744140625
0,1,0,27654,2.361328125,0.208984375,3,1,13,71,5,1267.22277832031,813.347229003906,0,1,faces,male,0,1,objects,P,big,VS,O,74,J12,306.744140625
0,1,0,27670,0.435546875,0.171875,1,1,4,21,3,727.549560546875,376.083679199219,0,1,objects,big,1,1,faces,P,female,VS,F,75,J12,310.943359375
1,0,0,27671,0.623046875,0.421875,2,1,7,30,4,873.541381835938,370.367980957031,1,0,NaN,NaN,1,1,faces,P,female,VS,F,75,J12,310.943359375
1,0,0,27672,1.0546875,0.39453125,3,1,6,29,5,877.872497558594,262.629730224609,0,1,faces,female,1,1,faces,P,female,VS,F,75,J12,310.943359375
2,0,0,27673,1.458984375,0.576171875,4,1,7,30,6,867.446960449219,349.331817626953,1,0,NaN,NaN,1,1,faces,P,female,VS,F,75,J12,310.943359375
0,0,0,27677,2.943359375,0.123046875,5,0,5,27,10,773.011657714844,971.543762207031,0,1,objects,small,1,1,faces,P,female,VS,F,75,J12,310.943359375
3,0,0,27679,3.345703125,0.572265625,6,0,7,30,12,866.554016113281,378.245056152344,1,0,NaN,NaN,1,1,faces,P,female,VS,F,75,J12,310.943359375
2,0,0,27680,3.931640625,0.16796875,7,0,6,29,13,883.395629882812,257.108184814453,0,1,faces,female,1,1,faces,P,female,VS,F,75,J12,310.943359375
1,1,0,27691,0.197265625,0.220703125,1,1,3,21,1,745.683959960938,370.813629150391,0,1,objects,big,0,1,faces,A,female,EX,F,76,J12,315.142578125
0,1,1,27692,0.4375,0.26171875,2,1,2,4,2,549.618347167969,391.391448974609,0,1,faces,male,0,1,faces,A,female,EX,F,76,J12,315.142578125
0,1,0,27695,1.099609375,0.19921875,3,1,9,41,5,968.983825683594,579.685363769531,0,1,faces,male,0,1,faces,A,female,EX,F,76,J12,315.142578125
0,1,0,27698,1.625,0.275390625,4,1,5,25,8,752.285949707031,768.470520019531,0,1,objects,small,0,1,faces,A,female,EX,F,76,J12,315.142578125
0,1,0,27702,2.68359375,0.37109375,5,0,10,48,12,1108.34704589844,371.360992431641,0,1,faces,male,0,1,faces,A,female,EX,F,76,J12,315.142578125
0,1,0,27704,3.37109375,0.318359375,6,0,11,55,14,1198.03637695312,172.867309570312,0,1,faces,female,0,1,faces,A,female,EX,F,76,J12,315.142578125
2,1,0,27705,3.732421875,0.64453125,7,0,3,21,15,746.348388671875,365.382598876953,0,1,objects,big,0,1,faces,A,female,EX,F,76,J12,315.142578125
0,1,0,27722,1.03125,0.3203125,1,1,9,45,2,992.047912597656,903.624877929688,0,1,faces,male,0,1,faces,A,male,EX,F,77,J12,319.341796875
0,1,0,27723,1.392578125,0.265625,2,1,15,80,3,1327.0361328125,847.867126464844,0,1,faces,male,0,1,faces,A,male,EX,F,77,J12,319.341796875
0,1,1,27727,2.3671875,0.302734375,3,1,10,47,7,1014.24114990234,272.092407226562,0,1,faces,female,0,1,faces,A,male,EX,F,77,J12,319.341796875
0,1,0,27729,2.8828125,0.39453125,4,1,5,29,9,887.3779296875,224.526397705078,0,1,objects,small,0,1,faces,A,male,EX,F,77,J12,319.341796875
0,1,0,27748,0.56640625,0.12109375,1,1,2,3,3,600.414794921875,362.615234375,0,1,objects,big,0,1,faces,A,female,EX,I,78,J12,323.541015625
0,1,1,27751,1.314453125,0.15234375,2,1,8,32,6,814.457397460938,508.954833984375,0,1,faces,male,0,1,faces,A,female,EX,I,78,J12,323.541015625
0,1,0,27753,1.728515625,0.267578125,3,1,4,14,8,641.1806640625,583.562194824219,0,1,faces,female,0,1,faces,A,female,EX,I,78,J12,323.541015625
0,1,0,27757,2.7109375,0.322265625,4,1,12,62,12,1127.97229003906,791.827575683594,0,1,objects,small,0,1,faces,A,female,EX,I,78,J12,323.541015625
0,1,0,27776,0.24609375,0.1875,1,1,8,40,2,969.2841796875,487.635040283203,0,1,faces,female,1,1,faces,P,female,VS,F,79,J12,327.740234375
0,0,1,27777,0.4609375,0.201171875,2,1,1,3,3,583.34033203125,386.551513671875,1,0,NaN,NaN,1,1,faces,P,female,VS,F,79,J12,327.740234375
0,0,0,27779,1.59375,0.25,3,1,5,19,5,797.843078613281,169.674285888672,0,1,faces,female,1,1,faces,P,female,VS,F,79,J12,327.740234375
0,0,0,27781,2.259765625,0.33203125,4,1,10,45,7,983.653869628906,939.217102050781,0,1,faces,male,1,1,faces,P,female,VS,F,79,J12,327.740234375
0,1,0,27799,0.232421875,0.205078125,1,1,8,33,2,823.259155273438,674.762145996094,0,1,faces,male,0,1,faces,A,female,VS,I,80,J12,331.939453125
0,1,0,27800,0.44921875,0.17578125,2,1,9,34,3,843.876831054688,773.843383789062,0,1,faces,female,0,1,faces,A,female,VS,I,80,J12,331.939453125
0,1,0,27801,0.654296875,0.189453125,3,1,10,43,4,975.8291015625,775.719055175781,0,1,faces,female,0,1,faces,A,female,VS,I,80,J12,331.939453125
0,1,0,27802,0.876953125,0.1796875,4,1,12,62,5,1194.20922851562,791.651550292969,0,1,objects,big,0,1,faces,A,female,VS,I,80,J12,331.939453125
0,1,0,27806,1.751953125,0.30859375,5,0,3,10,9,679.711853027344,180.060852050781,0,1,faces,male,0,1,faces,A,female,VS,I,80,J12,331.939453125
0,1,0,27807,2.087890625,0.2421875,6,0,1,1,10,580.285461425781,184.636108398438,0,1,objects,big,0,1,faces,A,female,VS,I,80,J12,331.939453125
0,1,0,27808,2.359375,0.267578125,7,0,6,21,11,754.18310546875,329.000305175781,0,1,objects,small,0,1,faces,A,female,VS,I,80,J12,331.939453125
0,1,0,27811,3.03125,0.234375,8,0,4,15,14,651.233947753906,686.892456054688,0,1,faces,male,0,1,faces,A,female,VS,I,80,J12,331.939453125
0,1,0,27832,0.2578125,0.12109375,1,1,5,33,2,855.473388671875,689.406188964844,1,0,NaN,NaN,1,1,faces,P,female,VS,F,81,J12,336.138671875
0,1,0,27836,2.361328125,0.26953125,2,1,15,80,6,1375.89868164062,872.419067382812,0,1,faces,male,1,1,faces,P,female,VS,F,81,J12,336.138671875
0,1,0,27853,0.81640625,0.16015625,1,1,4,17,4,632.260009765625,837.034301757812,0,1,faces,male,0,0,faces,P,male,VS,I,82,J12,340.337890625
0,1,0,27876,0.228515625,0.1328125,1,1,9,31,1,887.657470703125,489.315246582031,0,1,objects,big,1,0,faces,P,female,VS,I,83,J12,344.537109375
0,1,1,27877,0.376953125,0.240234375,2,1,13,42,2,994.7041015625,592.000915527344,0,1,objects,big,1,0,faces,P,female,VS,I,83,J12,344.537109375
1,1,0,27879,0.755859375,0.2109375,3,1,14,48,4,1095.4970703125,308.336547851562,0,1,objects,big,1,0,faces,P,female,VS,I,83,J12,344.537109375
0,1,0,27880,0.984375,0.166015625,4,1,10,37,5,951.303283691406,169.141296386719,0,1,faces,male,1,0,faces,P,female,VS,I,83,J12,344.537109375
0,0,0,27881,1.162109375,0.642578125,5,0,8,28,6,884.093444824219,173.546279907227,1,0,NaN,NaN,1,0,faces,P,female,VS,I,83,J12,344.537109375
0,0,0,27882,1.822265625,0.25,6,0,4,20,7,739.181457519531,280.652404785156,0,1,faces,female,1,0,faces,P,female,VS,I,83,J12,344.537109375
0,0,0,27883,2.087890625,0.234375,7,0,5,22,8,784.596618652344,480.771789550781,0,1,objects,small,1,0,faces,P,female,VS,I,83,J12,344.537109375
0,0,0,27885,2.455078125,0.345703125,8,0,7,25,10,775.314331054688,745.446838378906,0,1,faces,male,1,0,faces,P,female,VS,I,83,J12,344.537109375
0,0,0,27886,3.427734375,0.19140625,9,0,12,41,11,1003.36431884766,541.143859863281,0,1,faces,female,1,0,faces,P,female,VS,I,83,J12,344.537109375
2,0,0,27888,3.794921875,0.193359375,10,0,14,48,13,1103.01416015625,381.697479248047,0,1,objects,big,1,0,faces,P,female,VS,I,83,J12,344.537109375
0,1,1,27905,0.4453125,0.291015625,1,1,11,50,2,1085.11022949219,553.041625976562,0,1,faces,male,0,1,objects,A,small,VS,O,84,J12,348.736328125
0,1,0,27909,2.5,0.17578125,2,1,6,29,6,872.491149902344,270.077758789062,0,1,faces,female,0,1,objects,A,small,VS,O,84,J12,348.736328125
0,1,0,27935,0.212890625,0.125,1,1,10,50,1,1034.71984863281,578.223876953125,0,1,faces,female,0,1,objects,P,big,VS,O,85,J12,352.935546875
0,1,0,27937,0.5703125,0.1015625,2,1,4,13,3,687.219848632812,422.896270751953,0,1,faces,male,0,1,objects,P,big,VS,O,85,J12,352.935546875
0,1,0,27961,0.189453125,0.39453125,1,1,7,40,1,1003.8525390625,462.678833007812,0,1,objects,big,0,1,faces,A,male,EX,I,86,J12,357.134765625
1,1,0,27962,0.615234375,0.353515625,2,1,4,11,2,662.063049316406,252.086608886719,0,1,faces,male,0,1,faces,A,male,EX,I,86,J12,357.134765625
0,1,0,27967,2.40234375,0.201171875,3,1,11,53,7,1051.16101074219,869.578125,0,1,faces,male,0,1,faces,A,male,EX,I,86,J12,357.134765625
2,1,0,27969,3.765625,0.267578125,4,1,4,11,9,685.9169921875,227.870300292969,0,1,faces,male,0,1,faces,A,male,EX,I,86,J12,357.134765625
0,1,0,27981,0.208984375,0.2265625,1,1,5,32,1,812.200439453125,586.255981445312,0,1,objects,big,0,1,faces,A,male,VS,F,87,J12,361.333984375
0,1,0,27983,0.611328125,0.19140625,2,1,8,43,3,979.987060546875,763.727905273438,0,1,faces,female,0,1,faces,A,male,VS,F,87,J12,361.333984375
1,1,0,27984,0.8203125,0.23828125,3,1,11,49,4,1011.3046875,407.952514648438,0,1,faces,male,0,1,faces,A,male,VS,F,87,J12,361.333984375
0,1,0,27986,1.3828125,0.150390625,4,1,13,59,6,1126.88012695312,553.96044921875,0,1,faces,female,0,1,faces,A,male,VS,F,87,J12,361.333984375
2,1,0,27987,1.54296875,0.232421875,5,0,11,49,7,1064.69128417969,484.877410888672,0,1,faces,male,0,1,faces,A,male,VS,F,87,J12,361.333984375
1,1,0,27992,2.74609375,0.138671875,6,0,9,44,12,939.706115722656,885.983215332031,0,1,objects,small,0,1,faces,A,male,VS,F,87,J12,361.333984375
2,1,0,27994,3.22265625,0.208984375,7,0,9,44,14,975.499572753906,807.724243164062,0,1,objects,small,0,1,faces,A,male,VS,F,87,J12,361.333984375
1,1,0,28015,0.220703125,0.521484375,1,1,12,51,2,1066.37780761719,645.017028808594,0,1,faces,male,0,0,faces,P,male,VS,I,88,J12,365.533203125
0,1,0,28020,1.97265625,0.181640625,2,1,2,7,7,593.994750976562,776.310546875,0,1,objects,small,0,0,faces,P,male,VS,I,88,J12,365.533203125
0,1,0,28021,2.166015625,0.158203125,3,1,3,8,8,551.55908203125,838.438354492188,0,1,objects,small,0,0,faces,P,male,VS,I,88,J12,365.533203125
2,1,0,28025,2.955078125,0.220703125,4,1,12,51,12,1091.18054199219,685.216735839844,0,1,faces,male,0,0,faces,P,male,VS,I,88,J12,365.533203125
0,1,0,28027,3.515625,0.193359375,5,0,8,30,14,906.293579101562,389.190826416016,0,1,faces,female,0,0,faces,P,male,VS,I,88,J12,365.533203125
0,1,0,28047,1.353515625,0.16015625,1,1,10,49,6,1090.34338378906,480.464569091797,0,1,faces,female,0,1,objects,P,small,VS,O,89,J12,369.732421875
0,1,1,28048,2.44140625,0.201171875,2,1,6,14,7,698.044494628906,511.749847412109,0,1,objects,big,0,1,objects,P,small,VS,O,89,J12,369.732421875
0,1,0,28050,2.82421875,0.232421875,3,1,5,10,9,664.594543457031,172.923355102539,0,1,faces,female,0,1,objects,P,small,VS,O,89,J12,369.732421875
1,1,0,28065,0.201171875,0.232421875,1,1,5,32,1,897.446655273438,536.175537109375,0,1,objects,small,0,1,objects,A,big,VS,O,90,J12,373.931640625
1,1,0,28066,0.451171875,0.28125,2,1,9,49,2,1099.50561523438,416.518676757812,0,1,faces,male,0,1,objects,A,big,VS,O,90,J12,373.931640625
1,1,0,28069,1.080078125,0.208984375,3,1,11,54,5,1015.07104492188,959.211608886719,0,1,faces,female,0,1,objects,A,big,VS,O,90,J12,373.931640625
2,1,0,28073,1.9765625,0.34765625,4,1,5,32,9,883.39599609375,553.824768066406,0,1,objects,small,0,1,objects,A,big,VS,O,90,J12,373.931640625
2,1,0,28074,2.33984375,0.203125,5,0,9,49,10,1044.7607421875,431.610809326172,0,1,faces,male,0,1,objects,A,big,VS,O,90,J12,373.931640625
0,1,0,28076,2.810546875,0.162109375,6,0,1,2,12,573.088012695312,284.30615234375,0,1,faces,female,0,1,objects,A,big,VS,O,90,J12,373.931640625
2,1,0,28079,3.37890625,0.244140625,7,0,11,54,15,1072.12707519531,922.546508789062,0,1,faces,female,0,1,objects,A,big,VS,O,90,J12,373.931640625
0,1,0,28095,0.640625,0.296875,1,1,13,67,3,1263.87976074219,468.917144775391,0,1,faces,female,0,1,faces,A,female,VS,F,91,J12,378.130859375
0,1,0,28097,1.23828125,0.15234375,2,1,6,29,5,828.068359375,244.689529418945,0,1,objects,small,0,1,faces,A,female,VS,F,91,J12,378.130859375
0,1,0,28098,1.40234375,0.13671875,3,1,5,19,6,756.206909179688,173.272171020508,0,1,objects,small,0,1,faces,A,female,VS,F,91,J12,378.130859375
0,1,0,28103,2.716796875,0.26171875,4,1,12,61,11,1193.54382324219,771.426696777344,0,1,faces,male,0,1,faces,A,female,VS,F,91,J12,378.130859375
0,1,0,28120,0.193359375,0.162109375,1,1,10,31,1,870.646911621094,471.224914550781,0,1,faces,female,0,0,objects,A,small,EX,O,92,J12,382.330078125
0,1,0,28121,0.373046875,0.3046875,2,1,4,15,2,694.726440429688,642.471374511719,0,1,objects,small,0,0,objects,A,small,EX,O,92,J12,382.330078125
0,1,0,28122,0.685546875,0.185546875,3,1,5,16,3,664.502075195312,708.947509765625,0,1,faces,female,0,0,objects,A,small,EX,O,92,J12,382.330078125
0,1,0,28124,1.1875,0.15234375,4,1,6,17,5,653.2001953125,800.3876953125,0,1,faces,female,0,0,objects,A,small,EX,O,92,J12,382.330078125
0,1,0,28128,1.9765625,0.224609375,5,0,9,28,9,898.557495117188,179.546676635742,0,1,objects,small,0,0,objects,A,small,EX,O,92,J12,382.330078125
1,1,0,28153,0.052734375,0.41015625,1,1,5,32,1,861.7587890625,588.302856445312,0,1,faces,male,0,1,faces,A,male,VS,I,93,J12,386.529296875
0,1,0,28155,0.6875,0.1640625,2,1,4,13,3,663.486267089844,464.840209960938,0,1,faces,male,0,1,faces,A,male,VS,I,93,J12,386.529296875
0,1,0,28157,1.154296875,0.30859375,3,1,9,47,5,1104.28625488281,252.983306884766,0,1,faces,female,0,1,faces,A,male,VS,I,93,J12,386.529296875
0,1,0,28167,3.517578125,0.30859375,4,1,14,67,15,1303.85083007812,473.747222900391,0,1,faces,female,0,1,faces,A,male,VS,I,93,J12,386.529296875
2,1,0,28168,3.8671875,0.537109375,5,0,5,32,16,877.108459472656,579.201110839844,0,1,faces,male,0,1,faces,A,male,VS,I,93,J12,386.529296875
0,1,1,28183,0.31640625,0.12890625,1,1,9,40,3,982.405395507812,441.191741943359,0,1,faces,female,0,1,faces,P,male,VS,F,94,J12,390.728515625
0,1,0,28184,0.482421875,0.189453125,2,1,6,22,4,801.418395996094,463.816680908203,0,1,objects,big,0,1,faces,P,male,VS,F,94,J12,390.728515625
0,1,0,28185,0.703125,0.234375,3,1,3,10,5,657.437438964844,160.324325561523,0,1,faces,female,0,1,faces,P,male,VS,F,94,J12,390.728515625
0,1,0,28187,1.193359375,0.21484375,4,1,14,76,7,1373.29919433594,398.963531494141,0,1,faces,male,0,1,faces,P,male,VS,F,94,J12,390.728515625
0,1,0,28221,3.103515625,0.17578125,1,1,2,11,7,681.338928222656,276.987274169922,0,1,objects,big,0,1,faces,P,male,VS,I,95,J12,394.927734375
0,1,0,28222,3.306640625,0.189453125,2,1,5,30,8,893.401977539062,339.890747070312,0,1,faces,female,0,1,faces,P,male,VS,I,95,J12,394.927734375
0,1,0,28223,3.53125,0.341796875,3,1,8,58,9,1188.11547851562,473.398132324219,0,1,faces,male,0,1,faces,P,male,VS,I,95,J12,394.927734375
0,1,0,28238,0.26953125,0.19140625,1,1,8,40,1,989.700317382812,469.705627441406,0,1,objects,big,0,1,objects,A,big,EX,O,96,J12,399.126953125
1,1,0,28240,0.771484375,0.2265625,2,1,12,65,3,1296.54895019531,197.763900756836,0,1,objects,big,0,1,objects,A,big,EX,O,96,J12,399.126953125
0,1,0,28243,1.501953125,0.375,3,1,6,33,6,859.629455566406,683.742004394531,0,1,objects,big,0,1,objects,A,big,EX,O,96,J12,399.126953125
0,1,0,28246,2.35546875,0.140625,4,1,15,78,9,1343.38916015625,686.340576171875,0,1,faces,female,0,1,objects,A,big,EX,O,96,J12,399.126953125
0,1,0,28247,2.552734375,0.298828125,5,0,3,7,10,553.78515625,755.187683105469,0,1,faces,female,0,1,objects,A,big,EX,O,96,J12,399.126953125
2,1,0,28251,3.70703125,0.18359375,6,0,12,65,14,1262.19018554688,271.778167724609,0,1,objects,big,0,1,objects,A,big,EX,O,96,J12,399.126953125
0,1,1,28275,1.259765625,0.17578125,1,1,13,66,4,1211.44189453125,358.195220947266,0,1,objects,big,1,1,faces,P,male,VS,I,97,J12,403.326171875
0,1,0,28277,1.650390625,0.22265625,2,1,11,59,6,1112.34936523438,542.352233886719,0,1,objects,small,1,1,faces,P,male,VS,I,97,J12,403.326171875
0,1,1,28278,1.912109375,0.134765625,3,1,4,24,7,785.9208984375,671.686645507812,0,1,faces,female,1,1,faces,P,male,VS,I,97,J12,403.326171875
0,1,0,28280,2.30859375,0.197265625,4,1,7,34,9,832.542602539062,768.542358398438,0,1,faces,female,1,1,faces,P,male,VS,I,97,J12,403.326171875
0,1,0,28283,2.92578125,0.126953125,5,0,1,5,12,519.020568847656,557.656127929688,0,1,faces,male,1,1,faces,P,male,VS,I,97,J12,403.326171875
0,1,1,28285,3.291015625,0.130859375,6,0,5,30,14,866.947143554688,355.843536376953,1,0,NaN,NaN,1,1,faces,P,male,VS,I,97,J12,403.326171875
1,1,0,28298,0.900390625,0.107421875,1,1,6,38,5,980.2421875,269.432678222656,0,1,faces,male,0,1,faces,A,male,VS,F,98,J12,407.525390625
0,1,0,28299,1.03125,0.16796875,2,1,10,47,6,1072.25695800781,273.388885498047,0,1,objects,small,0,1,faces,A,male,VS,F,98,J12,407.525390625
0,1,0,28300,1.2109375,0.1953125,3,1,12,56,7,1165.5556640625,264.936370849609,0,1,faces,female,0,1,faces,A,male,VS,F,98,J12,407.525390625
0,1,0,28301,1.421875,0.26171875,4,1,13,58,8,1128.712890625,443.796264648438,0,1,faces,female,0,1,faces,A,male,VS,F,98,J12,407.525390625
0,1,0,28302,1.71875,0.193359375,5,0,15,78,9,1338.41735839844,653.446044921875,0,1,faces,male,0,1,faces,A,male,VS,F,98,J12,407.525390625
0,1,0,28303,1.95703125,0.2890625,6,0,7,42,10,936.019226074219,657.730224609375,0,1,faces,female,0,1,faces,A,male,VS,F,98,J12,407.525390625
0,1,0,28304,2.271484375,0.193359375,7,0,8,45,11,985.981994628906,935.6865234375,0,1,objects,big,0,1,faces,A,male,VS,F,98,J12,407.525390625
0,1,0,28309,3.546875,0.2890625,8,0,4,21,16,717.490112304688,355.581573486328,0,1,faces,female,0,1,faces,A,male,VS,F,98,J12,407.525390625
2,1,0,28310,3.85546875,0.22265625,9,0,6,38,17,919.019714355469,285.853698730469,0,1,faces,male,0,1,faces,A,male,VS,F,98,J12,407.525390625
0,1,0,28327,0.22265625,0.189453125,1,1,10,50,1,1020.91271972656,558.990417480469,0,1,objects,small,0,0,faces,P,male,VS,I,99,J12,411.724609375
0,1,0,28328,0.431640625,0.2890625,2,1,7,30,2,843.449340820312,370.022735595703,0,1,faces,male,0,0,faces,P,male,VS,I,99,J12,411.724609375
0,1,0,28330,1.041015625,0.423828125,3,1,3,6,4,516.375427246094,648.498718261719,0,1,faces,female,0,0,faces,P,male,VS,I,99,J12,411.724609375
0,1,0,28331,1.474609375,0.263671875,4,1,2,5,5,547.839660644531,553.352722167969,0,1,faces,female,0,0,faces,P,male,VS,I,99,J12,411.724609375
0,1,0,28332,1.7578125,0.416015625,5,0,4,7,6,533.344970703125,782.149780273438,0,1,faces,male,0,0,faces,P,male,VS,I,99,J12,411.724609375
0,1,0,28335,2.5703125,0.298828125,6,0,11,51,9,1070.19018554688,679.24267578125,0,1,faces,female,0,0,faces,P,male,VS,I,99,J12,411.724609375
0,1,0,28357,0.212890625,0.21484375,1,1,11,50,1,1065.25512695312,578.499145507812,0,1,faces,female,0,0,faces,A,female,EX,F,100,J12,415.923828125
0,1,0,28359,0.60546875,0.18359375,2,1,8,30,3,838.723754882812,379.762145996094,0,1,faces,male,0,0,faces,A,female,EX,F,100,J12,415.923828125
1,1,0,28360,0.82421875,0.44140625,3,1,3,12,4,639.471435546875,359.079895019531,0,1,faces,female,0,0,faces,A,female,EX,F,100,J12,415.923828125
0,1,0,28361,1.28125,0.18359375,4,1,2,10,5,648.659423828125,155.918045043945,0,1,objects,small,0,0,faces,A,female,EX,F,100,J12,415.923828125
0,1,0,28363,1.654296875,0.154296875,5,0,12,55,7,1160.30139160156,155.843597412109,0,1,faces,female,0,0,faces,A,female,EX,F,100,J12,415.923828125
0,1,1,28367,2.44921875,0.240234375,6,0,4,13,11,650.8671875,451.235137939453,0,1,faces,female,0,0,faces,A,female,EX,F,100,J12,415.923828125
2,1,0,28369,2.80859375,0.466796875,7,0,3,12,13,659.10693359375,377.005706787109,0,1,faces,female,0,0,faces,A,female,EX,F,100,J12,415.923828125
0,1,0,28371,3.427734375,0.140625,8,0,1,6,15,545.831665039062,681.244873046875,0,1,objects,big,0,0,faces,A,female,EX,F,100,J12,415.923828125
0,1,0,28372,3.583984375,0.42578125,9,0,5,14,16,659.840881347656,551.332275390625,0,1,faces,male,0,0,faces,A,female,EX,F,100,J12,415.923828125
0,1,0,28387,0.25,0.15625,1,1,6,39,1,970.519409179688,374.698638916016,0,1,faces,male,0,1,objects,A,small,EX,O,101,J12,420.123046875
0,1,0,28388,0.44921875,0.30078125,2,1,2,3,2,539.155151367188,368.773345947266,0,1,faces,male,0,1,objects,A,small,EX,O,101,J12,420.123046875
0,1,0,28389,0.77734375,0.30078125,3,1,3,5,3,566.666564941406,568.272277832031,0,1,objects,big,0,1,objects,A,small,EX,O,101,J12,420.123046875
0,1,0,28390,1.09375,0.18359375,4,1,4,6,4,559.025390625,686.531433105469,0,1,faces,female,0,1,objects,A,small,EX,O,101,J12,420.123046875
0,1,0,28391,1.3125,0.3359375,5,0,5,28,5,831.234191894531,171.349349975586,0,1,faces,female,0,1,objects,A,small,EX,O,101,J12,420.123046875
0,1,0,28392,1.693359375,0.267578125,6,0,11,64,6,1231.36865234375,186.7763671875,0,1,faces,female,0,1,objects,A,small,EX,O,101,J12,420.123046875
0,1,0,28394,2.154296875,0.185546875,7,0,14,75,8,1310.31005859375,368.663513183594,0,1,faces,female,0,1,objects,A,small,EX,O,101,J12,420.123046875
0,1,0,28395,2.357421875,0.30078125,8,0,8,56,9,1138.18359375,265.312408447266,0,1,objects,small,0,1,objects,A,small,EX,O,101,J12,420.123046875
0,1,0,28396,2.673828125,0.19921875,9,0,7,46,10,1015.15991210938,156.556442260742,0,1,faces,male,0,1,objects,A,small,EX,O,101,J12,420.123046875
0,1,0,28398,3.091796875,0.548828125,10,0,10,60,12,1190.30297851562,665.05810546875,0,1,objects,small,0,1,objects,A,small,EX,O,101,J12,420.123046875
0,1,0,28399,3.677734375,0.400390625,11,0,15,80,13,1359.30895996094,856.593139648438,0,1,faces,male,0,1,objects,A,small,EX,O,101,J12,420.123046875
0,1,0,28415,0.216796875,0.177734375,1,1,3,21,2,760.643798828125,354.612731933594,0,1,faces,female,0,1,objects,A,big,VS,O,102,J12,424.322265625
0,1,0,28416,0.4375,0.208984375,2,1,9,57,3,1188.34033203125,369.73193359375,0,1,faces,female,0,1,objects,A,big,VS,O,102,J12,424.322265625
