refix,pretarget,multifix,urevent,tonset,dur_added,rank,first_rank,stposrel,stposabs,n,x,y,istarget,isdistractor,distractor_cat,ditractor_atr,trial_targetseen,trial_correct,trial_cat,trial_resp,trial_atr,trial_type,trial_cattype,trial_number,trial_subject,trial_bgn_latency,Nrank,N_subj_rank,NC_subj_rank,NC_rank,VSNT_EX,isEX
0,1,0,26549,0.966796875,0.349609375,2,1,3,13,3,644.395690917969,424.436370849609,0,1,faces,female,0,1,faces,A,female,EX,I,6,J04,21.197265625,0.0,0.0,-0.5,-0.5,0,1
0,1,0,26550,1.328125,0.28125,3,1,2,12,4,660.0380859375,342.228302001953,0,1,faces,female,0,1,faces,A,female,EX,I,6,J04,21.197265625,0.2,0.09090909090909091,-0.40909090909090906,-0.3,0,1
0,1,0,26552,1.818359375,0.337890625,4,1,11,52,6,1062.7666015625,770.521118164062,0,1,faces,female,0,1,faces,A,female,EX,I,6,J04,21.197265625,0.4,0.18181818181818182,-0.3181818181818182,-0.09999999999999998,0,1
0,1,0,26554,2.33203125,0.48046875,5,0,9,36,8,852.362121582031,917.263244628906,0,1,objects,big,0,1,faces,A,female,EX,I,6,J04,21.197265625,0.6,0.2727272727272727,-0.2272727272727273,0.09999999999999998,0,1
0,1,0,26555,2.826171875,0.5546875,6,0,7,26,9,745.700256347656,797.430908203125,0,1,faces,male,0,1,faces,A,female,EX,I,6,J04,21.197265625,0.8,0.36363636363636365,-0.13636363636363635,0.30000000000000004,0,1
0,1,0,26556,3.42578125,0.140625,7,0,14,69,10,1288.99365234375,687.954162597656,0,1,faces,male,0,1,faces,A,female,EX,I,6,J04,21.197265625,1.0,0.45454545454545453,-0.04545454545454547,0.5,0,1
0,1,0,26671,1.0,0.205078125,2,1,1,2,5,540.503662109375,237.92350769043,0,1,faces,male,0,1,faces,A,female,VS,F,12,J04,46.392578125,0.0,0.0,-0.5,-0.5,1,0
1,1,0,26672,1.25,0.162109375,3,1,9,51,6,1033.08471679688,620.148132324219,0,1,faces,male,0,1,faces,A,female,VS,F,12,J04,46.392578125,0.16666666666666666,0.09090909090909091,-0.40909090909090906,-0.33333333333333337,1,0
0,1,1,26676,1.9453125,0.28125,5,0,4,8,10,550.314208984375,822.862243652344,0,1,faces,female,0,1,faces,A,female,VS,F,12,J04,46.392578125,0.5,0.2727272727272727,-0.2272727272727273,0.0,1,0
0,1,0,26678,2.3203125,0.33984375,6,0,5,9,12,550.272155761719,978.783020019531,0,1,faces,female,0,1,faces,A,female,VS,F,12,J04,46.392578125,0.6666666666666666,0.36363636363636365,-0.13636363636363635,0.16666666666666663,1,0
0,1,1,26683,3.31640625,0.1640625,7,0,11,58,17,1182.78247070312,411.052124023438,0,1,faces,male,0,1,faces,A,female,VS,F,12,J04,46.392578125,0.8333333333333334,0.45454545454545453,-0.04545454545454547,0.33333333333333337,1,0
0,1,0,26685,3.845703125,0.533203125,8,0,7,19,19,738.485412597656,181.653564453125,0,1,objects,big,0,1,faces,A,female,VS,F,12,J04,46.392578125,1.0,0.5454545454545454,0.045454545454545414,0.5,1,0
0,1,1,26722,1.482421875,0.119140625,2,1,14,71,7,1215.3701171875,804.579650878906,0,1,objects,big,0,1,faces,A,male,VS,F,14,J04,54.791015625,0.0,0.0,-0.5,-0.5,1,0
0,1,0,26724,1.748046875,0.166015625,3,1,11,53,9,1044.97192382812,810.520141601562,0,1,faces,male,0,1,faces,A,male,VS,F,14,J04,54.791015625,0.16666666666666666,0.09090909090909091,-0.40909090909090906,-0.33333333333333337,1,0
1,1,0,26726,2.150390625,0.1875,4,1,4,10,11,667.408203125,168.522476196289,0,1,faces,male,0,1,faces,A,male,VS,F,14,J04,54.791015625,0.3333333333333333,0.18181818181818182,-0.3181818181818182,-0.16666666666666669,1,0
0,1,1,26727,2.3515625,0.15234375,5,0,5,19,12,732.668823242188,160.99755859375,0,1,faces,female,0,1,faces,A,male,VS,F,14,J04,54.791015625,0.5,0.2727272727272727,-0.2272727272727273,0.0,1,0
0,1,0,26729,2.8125,0.208984375,6,0,2,3,14,597.413452148438,358.668579101562,0,1,faces,male,0,1,faces,A,male,VS,F,14,J04,54.791015625,0.6666666666666666,0.36363636363636365,-0.13636363636363635,0.16666666666666663,1,0
0,1,0,26731,3.47265625,0.154296875,8,0,15,75,16,1403.18969726562,300.344299316406,0,1,faces,male,0,1,faces,A,male,VS,F,14,J04,54.791015625,1.0,0.5454545454545454,0.045454545454545414,0.5,1,0
0,1,0,26777,0.640625,0.447265625,2,1,4,13,3,648.007385253906,436.418609619141,0,1,faces,female,0,1,faces,A,male,VS,I,17,J04,67.388671875,0.0,0.0,-0.5,-0.5,1,0
0,1,0,26779,1.326171875,0.248046875,3,1,5,29,5,845.794250488281,221.405822753906,0,1,faces,male,0,1,faces,A,male,VS,I,17,J04,67.388671875,0.16666666666666666,0.09090909090909091,-0.40909090909090906,-0.33333333333333337,1,0
0,1,0,26780,1.595703125,0.203125,4,1,9,37,6,955.929260253906,131.391326904297,0,1,faces,male,0,1,faces,A,male,VS,I,17,J04,67.388671875,0.3333333333333333,0.18181818181818182,-0.3181818181818182,-0.16666666666666669,1,0
1,1,0,26781,1.82421875,0.171875,5,0,12,65,7,1269.72143554688,255.826721191406,0,1,faces,female,0,1,faces,A,male,VS,I,17,J04,67.388671875,0.5,0.2727272727272727,-0.2272727272727273,0.0,1,0
0,1,0,26782,2.0078125,0.37890625,6,0,13,66,8,1248.12939453125,313.242279052734,0,1,faces,female,0,1,faces,A,male,VS,I,17,J04,67.388671875,0.6666666666666666,0.36363636363636365,-0.13636363636363635,0.16666666666666663,1,0
0,1,1,26785,2.76953125,0.1640625,8,0,10,61,11,1175.66040039062,783.809692382812,0,1,objects,small,0,1,faces,A,male,VS,I,17,J04,67.388671875,1.0,0.5454545454545454,0.045454545454545414,0.5,1,0
0,1,0,26830,0.59375,0.279296875,2,1,6,29,3,877.452087402344,273.739776611328,0,1,objects,small,0,1,objects,A,big,VS,O,20,J04,79.986328125,0.0,0.0,-0.5,-0.5,1,0
1,1,0,26831,0.9140625,0.216796875,3,1,13,64,4,1237.51354980469,129.933609008789,0,1,objects,big,0,1,objects,A,big,VS,O,20,J04,79.986328125,0.16666666666666666,0.09090909090909091,-0.40909090909090906,-0.33333333333333337,1,0
1,1,0,26832,1.14453125,0.33203125,4,1,10,55,5,1155.88415527344,118.721138000488,0,1,objects,small,0,1,objects,A,big,VS,O,20,J04,79.986328125,0.3333333333333333,0.18181818181818182,-0.3181818181818182,-0.16666666666666669,1,0
0,1,0,26843,3.533203125,0.201171875,8,0,2,14,16,631.661437988281,540.40087890625,0,1,objects,big,0,1,objects,A,big,VS,O,20,J04,79.986328125,1.0,0.5454545454545454,0.045454545454545414,0.5,1,0
0,1,0,26877,2.296875,0.13671875,2,1,15,74,6,1369.95642089844,227.774429321289,0,1,faces,male,0,1,faces,A,female,VS,I,22,J04,88.384765625,0.0,0.0,-0.5,-0.5,1,0
0,1,0,26878,2.470703125,0.224609375,3,1,5,28,7,872.974975585938,138.819259643555,0,1,faces,male,0,1,faces,A,female,VS,I,22,J04,88.384765625,0.2,0.09090909090909091,-0.40909090909090906,-0.3,1,0
0,1,0,26879,2.7109375,0.28125,4,1,3,19,8,765.296142578125,135.416290283203,0,1,faces,female,0,1,faces,A,female,VS,I,22,J04,88.384765625,0.4,0.18181818181818182,-0.3181818181818182,-0.09999999999999998,1,0
0,1,0,26880,3.01953125,0.376953125,5,0,2,14,9,648.787902832031,558.400695800781,0,1,faces,male,0,1,faces,A,female,VS,I,22,J04,88.384765625,0.6,0.2727272727272727,-0.2272727272727273,0.09999999999999998,1,0
0,1,0,26882,3.9140625,0.244140625,7,0,1,9,11,590.392456054688,919.463134765625,0,1,objects,big,0,1,faces,A,female,VS,I,22,J04,88.384765625,1.0,0.45454545454545453,-0.04545454545454547,0.5,1,0
1,1,0,26891,0.4375,0.181640625,2,1,5,32,2,842.767639160156,590.366455078125,0,1,objects,big,0,1,objects,A,small,VS,O,23,J04,92.583984375,0.0,0.0,-0.5,-0.5,1,0
1,1,0,26892,0.640625,0.142578125,3,1,2,17,3,631.627136230469,823.43896484375,0,1,objects,small,0,1,objects,A,small,VS,O,23,J04,92.583984375,0.2,0.09090909090909091,-0.40909090909090906,-0.3,1,0
1,1,0,26893,1.4921875,0.197265625,4,1,11,55,4,1165.16540527344,153.379501342773,0,1,faces,female,0,1,objects,A,small,VS,O,23,J04,92.583984375,0.4,0.18181818181818182,-0.3181818181818182,-0.09999999999999998,1,0
1,1,0,26894,1.701171875,0.212890625,5,0,9,46,5,1072.70373535156,158.003005981445,0,1,faces,female,0,1,objects,A,small,VS,O,23,J04,92.583984375,0.6,0.2727272727272727,-0.2272727272727273,0.09999999999999998,1,0
0,1,0,26895,1.9296875,0.2578125,6,0,10,48,6,1070.62573242188,322.754852294922,0,1,faces,male,0,1,objects,A,small,VS,O,23,J04,92.583984375,0.8,0.36363636363636365,-0.13636363636363635,0.30000000000000004,1,0
0,1,0,26896,2.228515625,0.23046875,7,0,14,75,7,1394.75085449219,319.315734863281,0,1,faces,female,0,1,objects,A,small,VS,O,23,J04,92.583984375,1.0,0.45454545454545453,-0.04545454545454547,0.5,1,0
0,1,0,26922,0.998046875,0.365234375,2,1,1,6,5,556.401916503906,666.361938476562,0,1,faces,male,0,1,faces,A,male,EX,I,25,J04,100.982421875,0.0,0.0,-0.5,-0.5,0,1
0,1,0,26923,1.40234375,0.146484375,3,1,7,39,6,950.006896972656,331.984497070312,0,1,faces,male,0,1,faces,A,male,EX,I,25,J04,100.982421875,1.0,0.09090909090909091,-0.40909090909090906,0.5,0,1
0,1,0,27022,0.60546875,0.248046875,2,1,2,13,3,624.302001953125,478.665222167969,0,1,faces,male,0,1,faces,A,female,VS,F,30,J04,121.978515625,0.0,0.0,-0.5,-0.5,1,0
0,1,0,27023,0.888671875,0.32421875,3,1,4,18,4,641.406921386719,922.275024414062,0,1,faces,male,0,1,faces,A,female,VS,F,30,J04,121.978515625,0.2,0.09090909090909091,-0.40909090909090906,-0.3,1,0
0,1,0,27024,1.234375,0.240234375,4,1,3,16,5,636.593566894531,737.555358886719,0,1,faces,female,0,1,faces,A,female,VS,F,30,J04,121.978515625,0.4,0.18181818181818182,-0.3181818181818182,-0.09999999999999998,1,0
0,1,0,27025,1.529296875,0.576171875,5,0,10,59,6,1156.21337890625,577.280029296875,0,1,faces,female,0,1,faces,A,female,VS,F,30,J04,121.978515625,0.6,0.2727272727272727,-0.2272727272727273,0.09999999999999998,1,0
0,1,0,27030,2.83984375,0.234375,6,0,9,49,11,1018.83099365234,422.113555908203,0,1,objects,big,0,1,faces,A,female,VS,F,30,J04,121.978515625,0.8,0.36363636363636365,-0.13636363636363635,0.30000000000000004,1,0
0,1,0,27031,3.095703125,0.322265625,7,0,6,30,12,835.083740234375,345.645202636719,0,1,objects,small,0,1,faces,A,female,VS,F,30,J04,121.978515625,1.0,0.45454545454545453,-0.04545454545454547,0.5,1,0
0,1,0,27065,0.4609375,0.162109375,2,1,2,6,3,574.724609375,688.372619628906,0,1,objects,small,0,1,faces,A,male,VS,F,32,J04,130.376953125,0.0,0.0,-0.5,-0.5,1,0
0,1,1,27068,1.033203125,0.30859375,3,1,10,42,6,1003.85583496094,662.064880371094,0,1,faces,female,0,1,faces,A,male,VS,F,32,J04,130.376953125,0.2,0.09090909090909091,-0.40909090909090906,-0.3,1,0
0,1,0,27070,1.53515625,0.23828125,4,1,14,70,8,1277.63842773438,710.472717285156,0,1,faces,female,0,1,faces,A,male,VS,F,32,J04,130.376953125,0.4,0.18181818181818182,-0.3181818181818182,-0.09999999999999998,1,0
0,1,0,27071,1.814453125,0.314453125,5,0,8,26,9,736.908020019531,888.989440917969,0,1,faces,male,0,1,faces,A,male,VS,F,32,J04,130.376953125,0.6,0.2727272727272727,-0.2272727272727273,0.09999999999999998,1,0
0,1,0,27076,3.06640625,0.208984375,6,0,11,48,14,1037.85595703125,368.86328125,0,1,faces,male,0,1,faces,A,male,VS,F,32,J04,130.376953125,0.8,0.36363636363636365,-0.13636363636363635,0.30000000000000004,1,0
0,1,0,27077,3.306640625,0.384765625,7,0,15,77,15,1377.66906738281,584.319030761719,0,1,faces,male,0,1,faces,A,male,VS,F,32,J04,130.376953125,1.0,0.45454545454545453,-0.04545454545454547,0.5,1,0
0,1,0,27151,0.791015625,0.177734375,2,1,2,3,3,546.371765136719,292.945434570312,0,1,objects,big,0,1,faces,A,female,VS,I,36,J04,147.173828125,0.0,0.0,-0.5,-0.5,1,0
0,1,1,27153,1.140625,0.162109375,3,1,9,46,5,1068.89270019531,158.399200439453,0,1,faces,female,0,1,faces,A,female,VS,I,36,J04,147.173828125,0.2,0.09090909090909091,-0.40909090909090906,-0.3,1,0
1,1,0,27158,2.083984375,0.162109375,4,1,12,66,10,1243.67919921875,387.068511962891,0,1,faces,male,0,1,faces,A,female,VS,I,36,J04,147.173828125,0.4,0.18181818181818182,-0.3181818181818182,-0.09999999999999998,1,0
0,1,1,27159,2.275390625,0.18359375,5,0,5,28,11,853.706604003906,157.708709716797,0,1,faces,female,0,1,faces,A,female,VS,I,36,J04,147.173828125,0.6,0.2727272727272727,-0.2272727272727273,0.09999999999999998,1,0
0,1,0,27163,3.416015625,0.4296875,7,0,7,40,15,931.51416015625,490.450775146484,0,1,faces,female,0,1,faces,A,female,VS,I,36,J04,147.173828125,1.0,0.45454545454545453,-0.04545454545454547,0.5,1,0
0,1,0,27196,0.650390625,0.66796875,2,1,1,9,2,545.830505371094,954.854614257812,0,1,faces,female,0,1,faces,A,female,EX,I,38,J04,155.572265625,0.0,0.0,-0.5,-0.5,0,1
0,1,0,27197,1.373046875,0.27734375,3,1,11,53,3,1021.85430908203,833.782287597656,0,1,faces,female,0,1,faces,A,female,EX,I,38,J04,155.572265625,0.2,0.09090909090909091,-0.40909090909090906,-0.3,0,1
0,1,0,27198,1.66796875,0.212890625,4,1,10,51,4,1081.87768554688,675.537841796875,0,1,objects,small,0,1,faces,A,female,EX,I,38,J04,155.572265625,0.4,0.18181818181818182,-0.3181818181818182,-0.09999999999999998,0,1
0,1,0,27200,2.142578125,0.20703125,5,0,14,78,6,1352.60107421875,600.391174316406,0,1,faces,female,0,1,faces,A,female,EX,I,38,J04,155.572265625,0.6,0.2727272727272727,-0.2272727272727273,0.09999999999999998,0,1
0,1,0,27201,2.369140625,0.41796875,6,0,15,79,7,1371.22143554688,730.211303710938,0,1,faces,female,0,1,faces,A,female,EX,I,38,J04,155.572265625,0.8,0.36363636363636365,-0.13636363636363635,0.30000000000000004,0,1
0,1,0,27205,3.5390625,0.232421875,7,0,7,30,11,840.959167480469,311.249145507812,0,1,faces,male,0,1,faces,A,female,EX,I,38,J04,155.572265625,1.0,0.45454545454545453,-0.04545454545454547,0.5,0,1
0,1,0,27221,1.306640625,0.244140625,2,1,11,53,6,1025.11657714844,867.554809570312,0,1,faces,male,0,1,objects,A,big,VS,O,39,J04,159.771484375,0.0,0.0,-0.5,-0.5,1,0
0,1,0,27224,2.05078125,0.298828125,3,1,15,77,9,1348.53588867188,528.90673828125,0,1,objects,big,0,1,objects,A,big,VS,O,39,J04,159.771484375,0.25,0.09090909090909091,-0.40909090909090906,-0.25,1,0
0,1,0,27225,2.380859375,0.275390625,4,1,13,73,10,1355.96704101562,177.006530761719,0,1,faces,male,0,1,objects,A,big,VS,O,39,J04,159.771484375,0.5,0.18181818181818182,-0.3181818181818182,0.0,1,0
0,1,0,27227,2.923828125,0.15234375,5,0,10,49,12,1019.08575439453,482.566101074219,0,1,faces,female,0,1,objects,A,big,VS,O,39,J04,159.771484375,0.75,0.2727272727272727,-0.2272727272727273,0.25,1,0
0,1,0,27228,3.0859375,0.16796875,6,0,9,48,13,1033.638671875,385.338745117188,0,1,objects,small,0,1,objects,A,big,VS,O,39,J04,159.771484375,1.0,0.36363636363636365,-0.13636363636363635,0.5,1,0
0,1,0,27320,2.724609375,0.212890625,2,1,12,39,8,991.621276855469,324.642883300781,0,1,faces,female,0,1,faces,A,female,EX,F,44,J04,180.767578125,0.0,0.0,-0.5,-0.5,0,1
0,1,0,27322,3.19921875,0.279296875,3,1,3,11,10,646.231079101562,221.526123046875,0,1,faces,male,0,1,faces,A,female,EX,F,44,J04,180.767578125,0.5,0.09090909090909091,-0.40909090909090906,0.0,0,1
0,1,0,27324,3.982421875,0.20703125,4,1,14,68,12,1300.57470703125,544.365661621094,0,1,faces,male,0,1,faces,A,female,EX,F,44,J04,180.767578125,1.0,0.18181818181818182,-0.3181818181818182,0.5,0,1
1,1,0,27352,0.388671875,0.25,2,1,7,30,2,812.670043945312,385.187377929688,0,1,objects,small,0,1,objects,A,small,VS,O,46,J04,189.166015625,0.0,0.0,-0.5,-0.5,1,0
0,1,0,27353,0.671875,0.29296875,3,1,10,38,3,920.988464355469,244.566482543945,0,1,objects,big,0,1,objects,A,small,VS,O,46,J04,189.166015625,0.2,0.09090909090909091,-0.40909090909090906,-0.3,1,0
0,1,0,27355,1.1640625,0.189453125,4,1,14,77,5,1345.48986816406,581.292724609375,0,1,objects,small,0,1,objects,A,small,VS,O,46,J04,189.166015625,0.4,0.18181818181818182,-0.3181818181818182,-0.09999999999999998,1,0
0,1,0,27356,1.916015625,0.201171875,5,0,5,18,6,635.570434570312,975.9453125,0,1,objects,big,0,1,objects,A,small,VS,O,46,J04,189.166015625,0.6,0.2727272727272727,-0.2272727272727273,0.09999999999999998,1,0
0,1,0,27358,2.369140625,0.1796875,6,0,11,44,8,933.916442871094,877.974426269531,0,1,faces,male,0,1,objects,A,small,VS,O,46,J04,189.166015625,0.8,0.36363636363636365,-0.13636363636363635,0.30000000000000004,1,0
0,1,0,27359,2.59375,0.16015625,7,0,3,13,9,666.990051269531,393.198547363281,0,1,faces,male,0,1,objects,A,small,VS,O,46,J04,189.166015625,1.0,0.45454545454545453,-0.04545454545454547,0.5,1,0
0,1,0,27410,1.501953125,0.197265625,2,1,2,10,5,670.588195800781,174.47673034668,0,1,faces,male,0,1,faces,A,male,EX,I,49,J04,201.763671875,0.0,0.0,-0.5,-0.5,0,1
0,1,1,27412,1.958984375,0.201171875,3,1,11,59,7,1189.70568847656,507.677032470703,0,1,faces,male,0,1,faces,A,male,EX,I,49,J04,201.763671875,0.3333333333333333,0.09090909090909091,-0.40909090909090906,-0.16666666666666669,0,1
0,1,0,27414,2.787109375,0.169921875,4,1,15,79,9,1310.33801269531,734.040832519531,0,1,objects,small,0,1,faces,A,male,EX,I,49,J04,201.763671875,0.6666666666666666,0.18181818181818182,-0.3181818181818182,0.16666666666666663,0,1
0,1,0,27416,3.30859375,0.26953125,5,0,14,76,11,1386.64721679688,421.672149658203,0,1,faces,male,0,1,faces,A,male,EX,I,49,J04,201.763671875,1.0,0.2727272727272727,-0.2272727272727273,0.5,0,1
0,1,0,27455,2.205078125,0.357421875,2,1,15,81,9,1386.63269042969,930.693237304688,0,1,faces,male,0,1,faces,A,male,EX,F,51,J04,210.162109375,0.0,0.0,-0.5,-0.5,0,1
0,1,0,27456,2.576171875,0.423828125,3,1,12,71,10,1275.67919921875,844.008178710938,0,1,faces,male,0,1,faces,A,male,EX,F,51,J04,210.162109375,0.25,0.09090909090909091,-0.40909090909090906,-0.25,0,1
0,1,0,27457,3.03515625,0.375,4,1,9,59,11,1169.31872558594,506.7109375,0,1,faces,male,0,1,faces,A,male,EX,F,51,J04,210.162109375,0.5,0.18181818181818182,-0.3181818181818182,0.0,0,1
0,1,0,27458,3.42578125,0.400390625,5,0,11,66,12,1259.80493164062,362.124969482422,0,1,objects,small,0,1,faces,A,male,EX,F,51,J04,210.162109375,0.75,0.2727272727272727,-0.2272727272727273,0.25,0,1
0,1,0,27459,3.859375,0.83203125,6,0,7,39,13,974.897521972656,344.492004394531,0,1,faces,female,0,1,faces,A,male,EX,F,51,J04,210.162109375,1.0,0.36363636363636365,-0.13636363636363635,0.5,0,1
0,1,0,27488,0.677734375,0.177734375,2,1,2,12,3,621.17919921875,309.098083496094,0,1,faces,female,0,1,faces,A,female,EX,I,53,J04,218.560546875,0.0,0.0,-0.5,-0.5,0,1
0,1,0,27491,1.30859375,0.44140625,3,1,13,74,6,1377.43505859375,276.139617919922,0,1,faces,female,0,1,faces,A,female,EX,I,53,J04,218.560546875,0.2,0.09090909090909091,-0.40909090909090906,-0.3,0,1
0,1,0,27492,1.80859375,0.41015625,4,1,3,31,7,855.521423339844,456.001312255859,0,1,faces,male,0,1,faces,A,female,EX,I,53,J04,218.560546875,0.4,0.18181818181818182,-0.3181818181818182,-0.09999999999999998,0,1
0,1,0,27494,2.44140625,0.43359375,5,0,10,69,9,1266.54907226562,674.949096679688,0,1,faces,female,0,1,faces,A,female,EX,I,53,J04,218.560546875,0.6,0.2727272727272727,-0.2272727272727273,0.09999999999999998,0,1
0,1,1,27496,2.9921875,0.23828125,6,0,12,72,11,1289.13623046875,941.556274414062,0,1,faces,male,0,1,faces,A,female,EX,I,53,J04,218.560546875,0.8,0.36363636363636365,-0.13636363636363635,0.30000000000000004,0,1
0,1,0,27499,3.650390625,0.37109375,7,0,15,81,14,1378.67565917969,908.085266113281,0,1,objects,big,0,1,faces,A,female,EX,I,53,J04,218.560546875,1.0,0.45454545454545453,-0.04545454545454547,0.5,0,1
0,1,0,27505,1.55859375,0.205078125,2,1,15,78,3,1394.69946289062,675.712890625,0,1,faces,male,0,1,faces,A,female,EX,F,54,J04,222.759765625,0.0,0.0,-0.5,-0.5,0,1
0,1,0,27508,2.19921875,0.431640625,3,1,11,63,6,1183.79089355469,965.499450683594,0,1,objects,small,0,1,faces,A,female,EX,F,54,J04,222.759765625,0.5,0.09090909090909091,-0.40909090909090906,0.0,0,1
0,1,0,27511,3.263671875,0.6171875,4,1,1,14,9,641.090087890625,585.666931152344,0,1,faces,female,0,1,faces,A,female,EX,F,54,J04,222.759765625,1.0,0.18181818181818182,-0.3181818181818182,0.5,0,1
0,1,0,27566,0.529296875,0.12890625,2,1,4,23,2,731.872375488281,572.416687011719,0,1,faces,male,0,1,objects,A,big,VS,O,58,J04,239.556640625,0.0,0.0,-0.5,-0.5,1,0
0,1,0,27567,0.6796875,0.17578125,3,1,1,4,3,545.168029785156,441.347473144531,0,1,objects,big,0,1,objects,A,big,VS,O,58,J04,239.556640625,0.25,0.09090909090909091,-0.40909090909090906,-0.25,1,0
0,1,0,27569,1.318359375,0.447265625,4,1,13,70,5,1285.69250488281,783.305541992188,0,1,objects,small,0,1,objects,A,big,VS,O,58,J04,239.556640625,0.5,0.18181818181818182,-0.3181818181818182,0.0,1,0
0,1,0,27571,2.59765625,0.31640625,5,0,2,11,7,652.625793457031,265.630584716797,0,1,objects,big,0,1,objects,A,big,VS,O,58,J04,239.556640625,0.75,0.2727272727272727,-0.2272727272727273,0.25,1,0
0,1,0,27573,3.5390625,0.341796875,6,0,12,68,9,1281.28344726562,551.088439941406,0,1,faces,female,0,1,objects,A,big,VS,O,58,J04,239.556640625,1.0,0.36363636363636365,-0.13636363636363635,0.5,1,0
0,1,0,28094,0.541015625,0.66015625,2,1,6,32,3,870.632141113281,507.809265136719,0,1,objects,small,0,1,objects,A,big,EX,O,73,J04,302.544921875,0.0,0.0,-0.5,-0.5,0,1
1,1,0,28096,1.375,0.24609375,3,1,3,6,5,554.097106933594,629.232727050781,0,1,objects,big,0,1,objects,A,big,EX,O,73,J04,302.544921875,0.125,0.09090909090909091,-0.40909090909090906,-0.375,0,1
0,1,0,28097,1.640625,0.29296875,4,1,2,4,6,591.56494140625,391.671813964844,0,1,faces,male,0,1,objects,A,big,EX,O,73,J04,302.544921875,0.25,0.18181818181818182,-0.3181818181818182,-0.25,0,1
0,1,0,28100,2.515625,0.2265625,6,0,5,30,9,908.959167480469,328.095062255859,0,1,objects,big,0,1,objects,A,big,EX,O,73,J04,302.544921875,0.5,0.36363636363636365,-0.13636363636363635,0.0,0,1
0,1,1,28101,2.791015625,0.224609375,7,0,14,70,10,1277.59509277344,777.00537109375,0,1,faces,female,0,1,objects,A,big,EX,O,73,J04,302.544921875,0.625,0.45454545454545453,-0.04545454545454547,0.125,0,1
0,1,0,28103,3.197265625,0.21484375,8,0,12,61,12,1140.25354003906,738.648742675781,0,1,faces,female,0,1,objects,A,big,EX,O,73,J04,302.544921875,0.75,0.5454545454545454,0.045454545454545414,0.25,0,1
0,1,0,28104,3.427734375,0.171875,9,0,13,69,13,1256.68530273438,628.137390136719,0,1,objects,small,0,1,objects,A,big,EX,O,73,J04,302.544921875,0.875,0.6363636363636364,0.13636363636363635,0.375,0,1
0,1,0,28105,3.62109375,0.685546875,10,0,9,49,14,1033.13806152344,482.593139648438,0,1,faces,female,0,1,objects,A,big,EX,O,73,J04,302.544921875,1.0,0.7272727272727273,0.2272727272727273,0.5,0,1
0,1,0,28209,0.953125,0.40234375,2,1,3,8,6,542.48291015625,852.787414550781,0,1,faces,male,0,1,objects,A,big,VS,O,79,J04,327.740234375,0.0,0.0,-0.5,-0.5,1,0
0,1,1,28212,1.931640625,0.16796875,3,1,12,69,9,1225.86706542969,623.81884765625,0,1,objects,small,0,1,objects,A,big,VS,O,79,J04,327.740234375,1.0,0.09090909090909091,-0.40909090909090906,0.5,1,0
0,1,0,28282,2.068359375,0.22265625,2,1,15,76,10,1318.33715820312,402.806640625,0,1,objects,small,0,1,objects,A,small,VS,O,83,J04,344.537109375,0.0,0.0,-0.5,-0.5,1,0
0,1,0,28283,2.353515625,0.400390625,3,1,1,2,11,592.752258300781,241.4423828125,0,1,objects,small,0,1,objects,A,small,VS,O,83,J04,344.537109375,0.5,0.09090909090909091,-0.40909090909090906,0.0,1,0
0,1,0,28284,2.771484375,0.193359375,4,1,4,13,12,679.32861328125,419.579376220703,0,1,faces,male,0,1,objects,A,small,VS,O,83,J04,344.537109375,1.0,0.18181818181818182,-0.3181818181818182,0.5,1,0
1,1,0,28406,1.01953125,0.66015625,2,1,5,11,2,678.624145507812,209.991027832031,0,1,faces,female,0,1,objects,A,big,VS,O,99,J04,411.724609375,0.0,0.0,-0.5,-0.5,1,0
0,1,0,28409,2.326171875,0.5703125,4,1,6,13,5,694.750671386719,441.72705078125,0,1,faces,female,0,1,objects,A,big,VS,O,99,J04,411.724609375,0.5,0.18181818181818182,-0.3181818181818182,0.0,1,0
0,1,0,28412,3.751953125,0.556640625,6,0,12,65,8,1273.9521484375,254.030288696289,0,1,objects,big,0,1,objects,A,big,VS,O,99,J04,411.724609375,1.0,0.36363636363636365,-0.13636363636363635,0.5,1,0
0,1,0,28441,1.0234375,0.23828125,2,1,7,27,4,795.359497070312,896.729370117188,0,1,faces,male,0,1,objects,A,small,VS,O,102,J04,424.322265625,0.0,0.0,-0.5,-0.5,1,0
0,1,0,28442,1.2734375,0.318359375,3,1,8,35,5,878.76171875,820.258605957031,0,1,objects,small,0,1,objects,A,small,VS,O,102,J04,424.322265625,0.14285714285714285,0.09090909090909091,-0.40909090909090906,-0.35714285714285715,1,0
0,1,0,28445,2.1796875,0.140625,4,1,12,61,8,1144.46728515625,691.121398925781,0,1,faces,female,0,1,objects,A,small,VS,O,102,J04,424.322265625,0.2857142857142857,0.18181818181818182,-0.3181818181818182,-0.2142857142857143,1,0
0,1,0,28447,2.5625,0.21484375,5,0,3,6,10,590.935913085938,596.361877441406,0,1,faces,female,0,1,objects,A,small,VS,O,102,J04,424.322265625,0.42857142857142855,0.2727272727272727,-0.2272727272727273,-0.07142857142857145,1,0
0,1,0,28449,2.962890625,0.208984375,6,0,1,2,12,599.641296386719,248.911865234375,0,1,faces,male,0,1,objects,A,small,VS,O,102,J04,424.322265625,0.5714285714285714,0.36363636363636365,-0.13636363636363635,0.0714285714285714,1,0
0,1,0,28451,3.384765625,0.123046875,7,0,14,77,14,1331.10595703125,533.635864257812,0,1,faces,male,0,1,objects,A,small,VS,O,102,J04,424.322265625,0.7142857142857143,0.45454545454545453,-0.04545454545454547,0.2142857142857143,1,0
0,1,1,28452,3.53515625,0.232421875,8,0,11,56,15,1123.50183105469,254.650894165039,0,1,objects,big,0,1,objects,A,small,VS,O,102,J04,424.322265625,0.8571428571428571,0.5454545454545454,0.045454545454545414,0.3571428571428571,1,0
0,1,0,28454,3.98828125,0.787109375,9,0,13,71,17,1214.33666992188,889.131958007812,0,1,faces,female,0,1,objects,A,small,VS,O,102,J04,424.322265625,1.0,0.6363636363636364,0.13636363636363635,0.5,1,0
0,1,0,28485,2.162109375,0.240234375,2,1,11,70,5,1262.38940429688,702.52783203125,0,1,faces,female,0,1,faces,A,female,EX,F,104,J04,432.720703125,0.0,0.0,-0.5,-0.5,0,1
0,1,0,28489,3.392578125,0.2265625,3,1,14,80,9,1341.90771484375,868.45263671875,0,1,faces,female,0,1,faces,A,female,EX,F,104,J04,432.720703125,0.5,0.09090909090909091,-0.40909090909090906,0.0,0,1
0,1,0,28490,3.626953125,0.353515625,4,1,15,81,10,1399.0419921875,890.964111328125,0,1,faces,male,0,1,faces,A,female,EX,F,104,J04,432.720703125,1.0,0.18181818181818182,-0.3181818181818182,0.5,0,1
0,1,0,28517,1.044921875,0.228515625,2,1,9,59,3,1201.17053222656,510.671325683594,0,1,faces,female,0,1,faces,A,male,EX,I,106,J04,441.119140625,0.0,0.0,-0.5,-0.5,0,1
0,1,0,28518,1.291015625,0.22265625,3,1,13,76,4,1372.12915039062,425.112182617188,0,1,faces,male,0,1,faces,A,male,EX,I,106,J04,441.119140625,0.3333333333333333,0.09090909090909091,-0.40909090909090906,-0.16666666666666669,0,1
0,1,0,28522,2.423828125,0.220703125,4,1,10,62,8,1183.15808105469,821.659301757812,0,1,objects,small,0,1,faces,A,male,EX,I,106,J04,441.119140625,0.6666666666666666,0.18181818181818182,-0.3181818181818182,0.16666666666666663,0,1
0,1,0,28524,3.849609375,0.96484375,5,0,8,58,10,1127.638671875,481.276184082031,0,1,faces,female,0,1,faces,A,male,EX,I,106,J04,441.119140625,1.0,0.2727272727272727,-0.2272727272727273,0.5,0,1
0,1,0,28699,1.13671875,0.23046875,2,1,13,64,6,1265.78100585938,132.184036254883,0,1,faces,male,0,1,faces,A,male,EX,F,116,J04,483.111328125,0.0,0.0,-0.5,-0.5,0,1
0,1,0,28703,2.1953125,0.291015625,3,1,10,58,10,1158.70971679688,417.668060302734,0,1,faces,male,0,1,faces,A,male,EX,F,116,J04,483.111328125,0.3333333333333333,0.09090909090909091,-0.40909090909090906,-0.16666666666666669,0,1
0,1,0,28705,2.8515625,0.55859375,4,1,8,44,12,982.379821777344,824.090881347656,0,1,faces,female,0,1,faces,A,male,EX,F,116,J04,483.111328125,0.6666666666666666,0.18181818181818182,-0.3181818181818182,0.16666666666666663,0,1
0,1,1,28706,3.455078125,0.283203125,5,0,4,22,13,764.212768554688,425.213928222656,0,1,faces,female,0,1,faces,A,male,EX,F,116,J04,483.111328125,1.0,0.2727272727272727,-0.2272727272727273,0.5,0,1
0,1,0,28786,0.7578125,0.26171875,2,1,10,55,3,1187.1171875,143.357330322266,0,1,objects,small,0,1,objects,A,small,VS,O,121,J04,504.107421875,0.0,0.0,-0.5,-0.5,1,0
0,1,0,28790,1.80078125,0.14453125,3,1,9,54,7,1065.98937988281,967.24755859375,0,1,faces,female,0,1,objects,A,small,VS,O,121,J04,504.107421875,0.3333333333333333,0.09090909090909091,-0.40909090909090906,-0.16666666666666669,1,0
0,1,0,28792,2.236328125,0.12890625,4,1,12,65,9,1270.04431152344,222.682403564453,0,1,faces,female,0,1,objects,A,small,VS,O,121,J04,504.107421875,0.6666666666666666,0.18181818181818182,-0.3181818181818182,0.16666666666666663,1,0
0,1,0,28799,3.73828125,0.142578125,5,0,4,24,16,711.607116699219,624.035888671875,0,1,objects,big,0,1,objects,A,small,VS,O,121,J04,504.107421875,1.0,0.2727272727272727,-0.2272727272727273,0.5,1,0
0,1,1,28839,1.501953125,0.16796875,2,1,13,65,6,1230.30505371094,283.178619384766,0,1,faces,male,0,1,faces,A,male,VS,I,125,J04,520.904296875,0.0,0.0,-0.5,-0.5,1,0
0,1,1,28841,1.908203125,0.171875,3,1,9,33,8,901.113830566406,606.869079589844,0,1,faces,male,0,1,faces,A,male,VS,I,125,J04,520.904296875,0.25,0.09090909090909091,-0.40909090909090906,-0.25,1,0
0,1,0,28843,2.275390625,0.2265625,4,1,7,23,10,747.102111816406,516.363342285156,0,1,faces,male,0,1,faces,A,male,VS,I,125,J04,520.904296875,0.5,0.18181818181818182,-0.3181818181818182,0.0,1,0
1,1,1,28844,2.51953125,0.28515625,5,0,2,7,11,597.691040039062,701.415161132812,0,1,faces,female,0,1,faces,A,male,VS,I,125,J04,520.904296875,0.75,0.2727272727272727,-0.2272727272727273,0.25,1,0
0,1,0,28846,3.005859375,0.314453125,6,0,5,17,13,632.916442871094,817.911987304688,0,1,faces,female,0,1,faces,A,male,VS,I,125,J04,520.904296875,1.0,0.36363636363636365,-0.13636363636363635,0.5,1,0
0,1,0,28862,1.689453125,0.146484375,2,1,4,6,6,578.544616699219,657.976379394531,0,1,objects,small,0,1,objects,A,big,EX,O,127,J04,529.302734375,0.0,0.0,-0.5,-0.5,0,1
0,1,0,28863,2.404296875,0.62109375,3,1,10,44,7,981.618225097656,843.392028808594,0,1,faces,male,0,1,objects,A,big,EX,O,127,J04,529.302734375,0.5,0.09090909090909091,-0.40909090909090906,0.0,0,1
0,1,0,28864,3.26953125,0.677734375,4,1,13,77,8,1383.40686035156,515.578369140625,0,1,objects,big,0,1,objects,A,big,EX,O,127,J04,529.302734375,1.0,0.18181818181818182,-0.3181818181818182,0.5,0,1
0,1,0,28911,0.953125,0.376953125,2,1,5,25,5,799.992126464844,699.057495117188,0,1,faces,male,0,1,faces,A,male,EX,F,131,J04,546.099609375,0.0,0.0,-0.5,-0.5,0,1
0,1,0,28912,1.3515625,0.240234375,3,1,2,16,6,702.208557128906,744.951232910156,0,1,faces,female,0,1,faces,A,male,EX,F,131,J04,546.099609375,0.14285714285714285,0.09090909090909091,-0.40909090909090906,-0.35714285714285715,0,1
0,1,0,28913,1.640625,0.185546875,4,1,11,69,7,1285.53918457031,596.891967773438,0,1,objects,small,0,1,faces,A,male,EX,F,131,J04,546.099609375,0.2857142857142857,0.18181818181818182,-0.3181818181818182,-0.2142857142857143,0,1
0,1,0,28914,1.833984375,0.3203125,5,0,10,68,8,1301.20336914062,584.121398925781,0,1,faces,female,0,1,faces,A,male,EX,F,131,J04,546.099609375,0.42857142857142855,0.2727272727272727,-0.2272727272727273,-0.07142857142857145,0,1
1,1,0,28916,2.353515625,0.181640625,6,0,9,48,10,1041.31042480469,370.118896484375,0,1,faces,female,0,1,faces,A,male,EX,F,131,J04,546.099609375,0.5714285714285714,0.36363636363636365,-0.13636363636363635,0.0714285714285714,0,1
0,1,0,28917,2.544921875,0.3203125,7,0,6,39,11,997.445007324219,390.203796386719,0,1,faces,female,0,1,faces,A,male,EX,F,131,J04,546.099609375,0.7142857142857143,0.45454545454545453,-0.04545454545454547,0.2142857142857143,0,1
0,1,0,28919,3.705078125,0.51953125,9,0,13,74,13,1372.62036132812,289.822906494141,0,1,faces,male,0,1,faces,A,male,EX,F,131,J04,546.099609375,1.0,0.6363636363636364,0.13636363636363635,0.5,0,1
0,1,1,28944,1.564453125,0.41015625,2,1,2,12,3,693.316223144531,371.008209228516,0,1,faces,female,0,1,faces,A,male,EX,I,133,J04,554.498046875,0.0,0.0,-0.5,-0.5,0,1
0,1,0,28946,3.55078125,0.50390625,3,1,8,43,5,952.777282714844,719.329711914062,0,1,faces,female,0,1,faces,A,male,EX,I,133,J04,554.498046875,1.0,0.09090909090909091,-0.40909090909090906,0.5,0,1
0,1,0,28991,1.166015625,0.177734375,3,1,5,24,4,778.708618164062,645.687133789062,0,1,faces,female,0,1,faces,A,female,VS,I,136,J04,567.095703125,0.0,0.09090909090909091,-0.40909090909090906,-0.5,1,0
0,1,0,28992,2.11328125,0.189453125,4,1,12,60,5,1167.05737304688,615.3828125,0,1,faces,female,0,1,faces,A,female,VS,I,136,J04,567.095703125,0.25,0.18181818181818182,-0.3181818181818182,-0.25,1,0
0,1,0,28993,2.318359375,0.130859375,5,0,10,51,6,1073.03369140625,686.385498046875,0,1,faces,male,0,1,faces,A,female,VS,I,136,J04,567.095703125,0.5,0.2727272727272727,-0.2272727272727273,0.0,1,0
0,1,0,28994,2.486328125,0.275390625,6,0,15,76,7,1380.88012695312,442.034576416016,0,1,faces,male,0,1,faces,A,female,VS,I,136,J04,567.095703125,0.75,0.36363636363636365,-0.13636363636363635,0.25,1,0
0,1,0,28999,3.51953125,0.255859375,7,0,8,37,12,967.356384277344,175.693313598633,0,1,objects,big,0,1,faces,A,female,VS,I,136,J04,567.095703125,1.0,0.45454545454545453,-0.04545454545454547,0.5,1,0
0,1,0,29253,0.95703125,0.3046875,2,1,12,75,2,1369.99768066406,290.125457763672,0,1,faces,female,0,1,faces,A,female,VS,I,144,J04,600.689453125,0.0,0.0,-0.5,-0.5,1,0
0,1,0,29257,2.064453125,0.18359375,3,1,1,1,6,596.56201171875,169.176727294922,0,1,faces,male,0,1,faces,A,female,VS,I,144,J04,600.689453125,0.16666666666666666,0.09090909090909091,-0.40909090909090906,-0.33333333333333337,1,0
0,1,0,29260,2.638671875,0.16796875,4,1,6,27,9,773.375915527344,921.973754882812,0,1,faces,male,0,1,faces,A,female,VS,I,144,J04,600.689453125,0.3333333333333333,0.18181818181818182,-0.3181818181818182,-0.16666666666666669,1,0
0,1,0,29261,2.822265625,0.171875,5,0,3,17,10,676.116271972656,834.176940917969,0,1,faces,female,0,1,faces,A,female,VS,I,144,J04,600.689453125,0.5,0.2727272727272727,-0.2272727272727273,0.0,1,0
0,1,0,29263,3.19921875,0.21484375,6,0,11,63,12,1194.23693847656,897.500183105469,0,1,faces,male,0,1,faces,A,female,VS,I,144,J04,600.689453125,0.6666666666666666,0.36363636363636365,-0.13636363636363635,0.16666666666666663,1,0
0,1,0,29264,3.439453125,0.171875,7,0,14,80,13,1363.78930664062,793.984924316406,0,1,objects,small,0,1,faces,A,female,VS,I,144,J04,600.689453125,0.8333333333333334,0.45454545454545453,-0.04545454545454547,0.33333333333333337,1,0
0,1,0,29265,3.65234375,0.1875,8,0,10,50,14,1020.06048583984,546.60595703125,0,1,faces,male,0,1,faces,A,female,VS,I,144,J04,600.689453125,1.0,0.5454545454545454,0.045454545454545414,0.5,1,0
0,1,0,29330,0.458984375,0.28515625,2,1,4,22,2,761.039123535156,393.875915527344,0,1,faces,female,0,1,objects,A,big,EX,O,149,J04,621.685546875,0.0,0.0,-0.5,-0.5,0,1
0,1,0,29331,0.78125,0.224609375,3,1,1,1,3,586.078857421875,180.385177612305,0,1,faces,male,0,1,objects,A,big,EX,O,149,J04,621.685546875,0.3333333333333333,0.09090909090909091,-0.40909090909090906,-0.16666666666666669,0,1
0,1,0,29332,1.013671875,0.880859375,4,1,2,3,4,595.027587890625,294.613739013672,0,1,faces,female,0,1,objects,A,big,EX,O,149,J04,621.685546875,0.6666666666666666,0.18181818181818182,-0.3181818181818182,0.16666666666666663,0,1
1,1,0,29336,3.11328125,0.15234375,5,0,8,41,8,939.650512695312,579.552185058594,0,1,faces,male,0,1,objects,A,big,EX,O,149,J04,621.685546875,1.0,0.2727272727272727,-0.2272727272727273,0.5,0,1
0,1,0,29374,0.5625,0.787109375,2,1,7,23,3,788.793334960938,511.810394287109,0,1,faces,female,0,1,faces,A,male,VS,I,152,J04,634.283203125,0.0,0.0,-0.5,-0.5,1,0
0,1,1,29376,1.552734375,0.13671875,3,1,3,15,5,663.738525390625,616.968017578125,0,1,faces,male,0,1,faces,A,male,VS,I,152,J04,634.283203125,0.25,0.09090909090909091,-0.40909090909090906,-0.25,1,0
0,1,0,29380,2.568359375,0.90234375,4,1,10,42,9,971.201965332031,670.727722167969,0,1,faces,female,0,1,faces,A,male,VS,I,152,J04,634.283203125,0.5,0.18181818181818182,-0.3181818181818182,0.0,1,0
0,1,0,29381,3.513671875,0.353515625,5,0,14,68,10,1289.05786132812,529.069152832031,0,1,faces,male,0,1,faces,A,male,VS,I,152,J04,634.283203125,0.75,0.2727272727272727,-0.2272727272727273,0.25,1,0
0,1,0,29382,3.91015625,0.365234375,6,0,13,64,11,1243.78894042969,144.831115722656,0,1,faces,male,0,1,faces,A,male,VS,I,152,J04,634.283203125,1.0,0.36363636363636365,-0.13636363636363635,0.5,1,0
1,1,0,29396,0.3515625,0.359375,2,1,5,16,2,677.656066894531,712.978271484375,0,1,objects,big,0,1,objects,A,small,VS,O,153,J04,638.482421875,0.0,0.0,-0.5,-0.5,1,0
1,1,1,29397,0.7265625,0.224609375,3,1,6,17,3,698.044738769531,867.862243652344,0,1,objects,big,0,1,objects,A,small,VS,O,153,J04,638.482421875,0.3333333333333333,0.09090909090909091,-0.40909090909090906,-0.16666666666666669,1,0
0,1,0,29399,1.169921875,0.13671875,4,1,13,63,5,1173.3134765625,907.814086914062,0,1,objects,small,0,1,objects,A,small,VS,O,153,J04,638.482421875,0.6666666666666666,0.18181818181818182,-0.3181818181818182,0.16666666666666663,1,0
0,1,0,29404,2.25390625,0.234375,5,0,9,22,10,797.162963867188,469.564880371094,0,1,faces,female,0,1,objects,A,small,VS,O,153,J04,638.482421875,1.0,0.2727272727272727,-0.2272727272727273,0.5,1,0
0,1,0,29437,1.837890625,0.197265625,2,1,7,19,4,788.165771484375,120.952369689941,0,1,faces,male,0,1,faces,A,male,EX,F,155,J04,646.880859375,0.0,0.0,-0.5,-0.5,0,1
0,1,0,29439,3.00390625,0.18359375,3,1,5,16,6,682.500244140625,729.619445800781,0,1,objects,big,0,1,faces,A,male,EX,F,155,J04,646.880859375,1.0,0.09090909090909091,-0.40909090909090906,0.5,0,1
0,1,0,29506,3.17578125,0.66796875,2,1,4,30,12,846.691162109375,303.373901367188,0,1,objects,big,0,1,faces,A,female,EX,I,159,J04,663.677734375,0.0,0.0,-0.5,-0.5,0,1
0,1,0,29507,3.865234375,0.56640625,3,1,1,4,13,609.773681640625,435.666687011719,0,1,faces,female,0,1,faces,A,female,EX,I,159,J04,663.677734375,1.0,0.09090909090909091,-0.40909090909090906,0.5,0,1
0,1,0,29545,0.400390625,0.15234375,2,1,5,31,2,828.979187011719,452.060333251953,0,1,objects,small,0,1,objects,A,big,VS,O,161,J04,672.076171875,0.0,0.0,-0.5,-0.5,1,0
0,1,0,29547,0.7890625,0.2421875,3,1,6,36,4,899.437133789062,901.122497558594,0,1,faces,male,0,1,objects,A,big,VS,O,161,J04,672.076171875,0.5,0.09090909090909091,-0.40909090909090906,0.0,1,0
0,1,0,29557,3.05859375,0.34375,4,1,12,66,14,1228.02722167969,364.777160644531,0,1,faces,female,0,1,objects,A,big,VS,O,161,J04,672.076171875,1.0,0.18181818181818182,-0.3181818181818182,0.5,1,0
0,1,1,29658,0.873046875,0.126953125,2,1,13,77,4,1351.37768554688,504.006011962891,0,1,faces,female,0,1,faces,A,female,VS,F,168,J04,701.470703125,0.0,0.0,-0.5,-0.5,1,0
0,1,0,29661,1.3359375,0.154296875,3,1,2,3,7,603.234008789062,349.230499267578,0,1,faces,male,0,1,faces,A,female,VS,F,168,J04,701.470703125,0.2,0.09090909090909091,-0.40909090909090906,-0.3,1,0
0,1,0,29662,1.529296875,0.171875,4,1,5,28,8,848.827209472656,124.484107971191,0,1,faces,male,0,1,faces,A,female,VS,F,168,J04,701.470703125,0.4,0.18181818181818182,-0.3181818181818182,-0.09999999999999998,1,0
0,1,1,29664,1.794921875,0.25390625,5,0,4,19,10,782.309692382812,131.97119140625,0,1,faces,female,0,1,faces,A,female,VS,F,168,J04,701.470703125,0.6,0.2727272727272727,-0.2272727272727273,0.09999999999999998,1,0
1,1,0,29666,2.263671875,0.283203125,6,0,10,54,12,1047.03942871094,970.808166503906,0,1,faces,female,0,1,faces,A,female,VS,F,168,J04,701.470703125,0.8,0.36363636363636365,-0.13636363636363635,0.30000000000000004,1,0
1,1,0,29667,2.58203125,0.21484375,7,0,15,80,13,1380.70031738281,819.192749023438,0,1,objects,small,0,1,faces,A,female,VS,F,168,J04,701.470703125,1.0,0.45454545454545453,-0.04545454545454547,0.5,1,0
1,1,0,29758,0.53125,0.31640625,2,1,2,12,3,688.631164550781,370.80712890625,0,1,faces,female,0,1,faces,A,male,EX,I,174,J04,726.666015625,0.0,0.0,-0.5,-0.5,0,1
1,1,0,29759,0.865234375,0.421875,3,1,1,1,4,597.782348632812,157.589813232422,0,1,faces,male,0,1,faces,A,male,EX,I,174,J04,726.666015625,0.3333333333333333,0.09090909090909091,-0.40909090909090906,-0.16666666666666669,0,1
0,1,0,29760,1.34765625,0.392578125,4,1,3,18,5,651.050048828125,985.380615234375,0,1,faces,male,0,1,faces,A,male,EX,I,174,J04,726.666015625,0.6666666666666666,0.18181818181818182,-0.3181818181818182,0.16666666666666663,0,1
0,1,0,29761,1.775390625,0.189453125,5,0,11,45,6,957.934936523438,914.26708984375,0,1,faces,female,0,1,faces,A,male,EX,I,174,J04,726.666015625,1.0,0.2727272727272727,-0.2272727272727273,0.5,0,1
0,1,0,29807,1.169921875,0.373046875,2,1,4,14,4,701.294677734375,559.469116210938,0,1,faces,male,0,1,faces,A,male,VS,F,176,J04,735.064453125,0.0,0.0,-0.5,-0.5,1,0
0,1,0,29808,1.55078125,0.67578125,3,1,5,15,5,661.036010742188,597.229797363281,0,1,objects,big,0,1,faces,A,male,VS,F,176,J04,735.064453125,0.5,0.09090909090909091,-0.40909090909090906,0.0,1,0
0,1,0,29811,3.087890625,0.783203125,4,1,11,41,8,952.035522460938,524.1357421875,0,1,faces,male,0,1,faces,A,male,VS,F,176,J04,735.064453125,1.0,0.18181818181818182,-0.3181818181818182,0.5,1,0
0,1,0,29822,1.423828125,0.259765625,2,1,11,50,4,1061.04333496094,548.020690917969,0,1,faces,male,0,1,faces,A,female,VS,I,177,J04,739.263671875,0.0,0.0,-0.5,-0.5,1,0
0,1,0,29828,3.40234375,0.1640625,3,1,7,36,10,813.378356933594,912.521606445312,0,1,objects,big,0,1,faces,A,female,VS,I,177,J04,739.263671875,0.5,0.09090909090909091,-0.40909090909090906,0.0,1,0
0,1,0,29830,3.833984375,0.462890625,4,1,9,43,12,930.09765625,783.071594238281,0,1,faces,male,0,1,faces,A,female,VS,I,177,J04,739.263671875,1.0,0.18181818181818182,-0.3181818181818182,0.5,1,0
0,1,0,30024,1.671875,0.390625,2,1,13,54,7,1062.82495117188,937.364624023438,0,1,objects,small,0,1,faces,A,female,EX,F,188,J04,785.455078125,0.0,0.0,-0.5,-0.5,0,1
0,1,0,30025,2.09765625,0.201171875,3,1,15,59,8,1154.97863769531,563.694152832031,0,1,faces,male,0,1,faces,A,female,EX,F,188,J04,785.455078125,0.5,0.09090909090909091,-0.40909090909090906,0.0,0,1
1,1,0,30027,2.7890625,0.291015625,4,1,10,39,10,977.623718261719,377.881774902344,0,1,faces,male,0,1,faces,A,female,EX,F,188,J04,785.455078125,1.0,0.18181818181818182,-0.3181818181818182,0.5,0,1
0,1,0,30041,1.044921875,0.142578125,2,1,3,4,3,581.352233886719,423.133728027344,0,1,objects,big,0,1,objects,A,big,VS,O,189,J04,789.654296875,0.0,0.0,-0.5,-0.5,1,0
1,1,0,30042,1.255859375,0.140625,3,1,15,75,4,1320.99938964844,352.813049316406,0,1,faces,female,0,1,objects,A,big,VS,O,189,J04,789.654296875,0.14285714285714285,0.09090909090909091,-0.40909090909090906,-0.35714285714285715,1,0
0,1,0,30043,1.41015625,0.216796875,4,1,12,66,5,1259.77612304688,319.444305419922,0,1,faces,female,0,1,objects,A,big,VS,O,189,J04,789.654296875,0.2857142857142857,0.18181818181818182,-0.3181818181818182,-0.2142857142857143,1,0
0,1,0,30046,2.029296875,0.203125,5,0,9,63,8,1198.12475585938,986.935974121094,0,1,faces,female,0,1,objects,A,big,VS,O,189,J04,789.654296875,0.42857142857142855,0.2727272727272727,-0.2272727272727273,-0.07142857142857145,1,0
0,1,0,30049,2.783203125,0.134765625,6,0,5,8,11,550.749572753906,873.761657714844,0,1,faces,female,0,1,objects,A,big,VS,O,189,J04,789.654296875,0.5714285714285714,0.36363636363636365,-0.13636363636363635,0.0714285714285714,1,0
0,1,0,30052,3.357421875,0.2265625,8,0,11,65,14,1297.20544433594,270.562194824219,0,1,objects,small,0,1,objects,A,big,VS,O,189,J04,789.654296875,0.8571428571428571,0.5454545454545454,0.045454545454545414,0.3571428571428571,1,0
0,1,0,30054,3.8125,0.18359375,9,0,2,2,16,593.857788085938,200.248733520508,0,1,faces,male,0,1,objects,A,big,VS,O,189,J04,789.654296875,1.0,0.6363636363636364,0.13636363636363635,0.5,1,0
1,1,0,30060,1.55078125,0.1796875,2,1,3,8,6,544.895202636719,812.255798339844,0,1,faces,female,0,1,faces,A,male,VS,F,190,J04,793.853515625,0.0,0.0,-0.5,-0.5,1,0
0,1,0,30061,1.75390625,0.162109375,3,1,6,27,7,775.339965820312,957.504211425781,0,1,faces,female,0,1,faces,A,male,VS,F,190,J04,793.853515625,0.14285714285714285,0.09090909090909091,-0.40909090909090906,-0.35714285714285715,1,0
0,1,0,30063,2.408203125,0.197265625,5,0,14,77,9,1321.57946777344,558.088989257812,0,1,faces,female,0,1,faces,A,male,VS,F,190,J04,793.853515625,0.42857142857142855,0.2727272727272727,-0.2272727272727273,-0.07142857142857145,1,0
0,1,0,30064,2.6171875,0.203125,6,0,13,68,10,1240.20190429688,533.110534667969,0,1,faces,male,0,1,faces,A,male,VS,F,190,J04,793.853515625,0.5714285714285714,0.36363636363636365,-0.13636363636363635,0.0714285714285714,1,0
0,1,0,30065,2.8359375,0.25390625,7,0,15,78,11,1351.53002929688,628.852416992188,0,1,faces,male,0,1,faces,A,male,VS,F,190,J04,793.853515625,0.7142857142857143,0.45454545454545453,-0.04545454545454547,0.2142857142857143,1,0
0,1,0,30066,3.125,0.134765625,8,0,12,66,12,1220.58581542969,365.374450683594,0,1,objects,small,0,1,faces,A,male,VS,F,190,J04,793.853515625,0.8571428571428571,0.5454545454545454,0.045454545454545414,0.3571428571428571,1,0
0,1,1,30067,3.28515625,0.21484375,9,0,8,31,13,887.94287109375,444.191925048828,0,1,faces,female,0,1,faces,A,male,VS,F,190,J04,793.853515625,1.0,0.6363636363636364,0.13636363636363635,0.5,1,0
0,1,0,30191,1.48046875,0.17578125,2,1,4,32,6,838.212524414062,512.977355957031,0,1,faces,female,0,1,objects,A,big,EX,O,197,J04,823.248046875,0.0,0.0,-0.5,-0.5,0,1
0,1,0,30193,2.466796875,0.41015625,3,1,15,81,8,1388.70178222656,936.032287597656,0,1,objects,big,0,1,objects,A,big,EX,O,197,J04,823.248046875,0.25,0.09090909090909091,-0.40909090909090906,-0.25,0,1
0,1,0,30194,2.890625,0.291015625,4,1,14,80,9,1387.89892578125,820.684204101562,0,1,objects,small,0,1,objects,A,big,EX,O,197,J04,823.248046875,0.5,0.18181818181818182,-0.3181818181818182,0.0,0,1
0,1,0,30195,3.21875,0.412109375,5,0,11,67,10,1230.42663574219,423.377777099609,0,1,objects,small,0,1,objects,A,big,EX,O,197,J04,823.248046875,0.75,0.2727272727272727,-0.2272727272727273,0.25,0,1
0,1,0,30196,3.640625,0.9140625,6,0,8,58,11,1153.18432617188,430.282806396484,0,1,objects,big,0,1,objects,A,big,EX,O,197,J04,823.248046875,1.0,0.36363636363636365,-0.13636363636363635,0.5,0,1
0,1,0,30227,0.681640625,0.408203125,2,1,2,3,3,532.054931640625,357.188110351562,0,1,faces,female,0,1,faces,A,female,EX,F,199,J04,831.646484375,0.0,0.0,-0.5,-0.5,0,1
0,1,0,30233,3.009765625,0.193359375,3,1,13,60,9,1122.16589355469,635.630554199219,0,1,faces,female,0,1,faces,A,female,EX,F,199,J04,831.646484375,1.0,0.09090909090909091,-0.40909090909090906,0.5,0,1
0,1,0,30245,0.66015625,0.130859375,2,1,3,15,3,614.137634277344,665.768188476562,0,1,objects,small,0,1,objects,A,small,VS,O,200,J04,835.845703125,0.0,0.0,-0.5,-0.5,1,0
0,1,1,30246,0.833984375,0.283203125,3,1,5,28,4,900.130065917969,185.413955688477,0,1,objects,big,0,1,objects,A,small,VS,O,200,J04,835.845703125,0.2,0.09090909090909091,-0.40909090909090906,-0.3,1,0
0,1,0,30248,1.267578125,0.25,4,1,11,56,6,1130.16821289062,271.313934326172,0,1,faces,female,0,1,objects,A,small,VS,O,200,J04,835.845703125,0.4,0.18181818181818182,-0.3181818181818182,-0.09999999999999998,1,0
0,1,0,30249,1.5390625,0.154296875,5,0,14,64,7,1242.28063964844,165.891525268555,0,1,objects,small,0,1,objects,A,small,VS,O,200,J04,835.845703125,0.6,0.2727272727272727,-0.2272727272727273,0.09999999999999998,1,0
0,1,0,30251,1.935546875,0.166015625,6,0,4,16,9,615.492309570312,722.556457519531,0,1,faces,male,0,1,objects,A,small,VS,O,200,J04,835.845703125,0.8,0.36363636363636365,-0.13636363636363635,0.30000000000000004,1,0
0,1,0,30260,3.845703125,0.17578125,7,0,12,58,18,1180.5888671875,483.90966796875,0,1,faces,female,0,1,objects,A,small,VS,O,200,J04,835.845703125,1.0,0.45454545454545453,-0.04545454545454547,0.5,1,0
0,1,0,30268,0.88671875,0.689453125,2,1,2,7,3,565.434204101562,732.72802734375,0,1,faces,male,0,1,faces,A,male,EX,F,201,J04,840.044921875,0.0,0.0,-0.5,-0.5,0,1
0,1,0,30269,1.623046875,0.482421875,3,1,10,53,4,1069.79541015625,797.66552734375,0,1,faces,female,0,1,faces,A,male,EX,F,201,J04,840.044921875,0.25,0.09090909090909091,-0.40909090909090906,-0.25,0,1
0,1,0,30272,2.56640625,0.46875,4,1,6,31,7,854.562744140625,436.901275634766,0,1,objects,small,0,1,faces,A,male,EX,F,201,J04,840.044921875,0.5,0.18181818181818182,-0.3181818181818182,0.0,0,1
0,1,0,30273,3.078125,0.228515625,5,0,14,68,8,1303.53601074219,576.055969238281,0,1,faces,female,0,1,faces,A,male,EX,F,201,J04,840.044921875,0.75,0.2727272727272727,-0.2272727272727273,0.25,0,1
0,1,0,30274,3.318359375,0.93359375,6,0,15,78,9,1345.14440917969,608.498352050781,0,1,objects,small,0,1,faces,A,male,EX,F,201,J04,840.044921875,1.0,0.36363636363636365,-0.13636363636363635,0.5,0,1
0,1,0,30339,0.3984375,0.16796875,2,1,5,16,2,615.590026855469,747.740783691406,0,1,objects,small,0,1,objects,A,big,VS,O,206,J04,861.041015625,0.0,0.0,-0.5,-0.5,1,0
0,1,0,30340,0.609375,0.37109375,3,1,1,3,3,542.689086914062,367.235717773438,0,1,faces,male,0,1,objects,A,big,VS,O,206,J04,861.041015625,0.09090909090909091,0.09090909090909091,-0.40909090909090906,-0.40909090909090906,1,0
0,1,1,30341,1.03125,0.140625,4,1,10,46,4,1028.72534179688,179.624710083008,0,1,faces,male,0,1,objects,A,big,VS,O,206,J04,861.041015625,0.18181818181818182,0.18181818181818182,-0.3181818181818182,-0.3181818181818182,1,0
0,1,0,30343,1.34765625,0.173828125,5,0,11,49,6,1058.97729492188,397.782684326172,0,1,faces,female,0,1,objects,A,big,VS,O,206,J04,861.041015625,0.2727272727272727,0.2727272727272727,-0.2272727272727273,-0.2272727272727273,1,0
0,1,0,30344,1.55078125,0.302734375,6,0,14,75,7,1355.07580566406,376.906768798828,0,1,faces,male,0,1,objects,A,big,VS,O,206,J04,861.041015625,0.36363636363636365,0.36363636363636365,-0.13636363636363635,-0.13636363636363635,1,0
1,1,0,30345,1.884765625,0.19921875,7,0,9,42,8,947.403747558594,681.569458007812,0,1,objects,big,0,1,objects,A,big,VS,O,206,J04,861.041015625,0.45454545454545453,0.45454545454545453,-0.04545454545454547,-0.04545454545454547,1,0
0,1,0,30348,2.84765625,0.259765625,10,0,4,7,11,606.874755859375,765.694458007812,0,1,faces,male,0,1,objects,A,big,VS,O,206,J04,861.041015625,0.7272727272727273,0.7272727272727273,0.2272727272727273,0.2272727272727273,1,0
0,1,0,30349,3.12109375,0.203125,11,0,6,17,12,661.640747070312,821.804443359375,0,1,faces,male,0,1,objects,A,big,VS,O,206,J04,861.041015625,0.8181818181818182,0.8181818181818182,0.31818181818181823,0.31818181818181823,1,0
0,1,0,30350,3.3828125,0.15625,12,0,13,70,13,1214.16394042969,728.721557617188,0,1,faces,female,0,1,objects,A,big,VS,O,206,J04,861.041015625,0.9090909090909091,0.9090909090909091,0.40909090909090906,0.40909090909090906,1,0
0,1,0,30351,3.5546875,0.37109375,13,0,12,61,14,1140.88317871094,729.04833984375,0,1,objects,small,0,1,objects,A,big,VS,O,206,J04,861.041015625,1.0,1.0,0.5,0.5,1,0
0,1,0,30363,0.939453125,0.50390625,2,1,8,53,4,1090.40148925781,846.959533691406,0,1,faces,female,0,1,faces,A,male,EX,I,207,J04,865.240234375,0.0,0.0,-0.5,-0.5,0,1
0,1,0,30364,1.470703125,0.263671875,3,1,14,79,5,1328.80883789062,722.223083496094,0,1,objects,small,0,1,faces,A,male,EX,I,207,J04,865.240234375,0.5,0.09090909090909091,-0.40909090909090906,0.0,0,1
0,1,1,30366,2.0,0.490234375,4,1,3,5,7,570.537475585938,552.85009765625,0,1,objects,big,0,1,faces,A,male,EX,I,207,J04,865.240234375,1.0,0.18181818181818182,-0.3181818181818182,0.5,0,1
0,1,0,30386,0.421875,0.201171875,2,1,3,16,3,620.070861816406,771.684631347656,0,1,faces,female,0,1,faces,A,female,VS,F,209,J04,873.638671875,0.0,0.0,-0.5,-0.5,1,0
0,1,0,30389,0.953125,0.154296875,3,1,10,54,6,1057.75732421875,929.064270019531,0,1,faces,male,0,1,faces,A,female,VS,F,209,J04,873.638671875,0.09090909090909091,0.09090909090909091,-0.40909090909090906,-0.40909090909090906,1,0
0,1,0,30390,1.146484375,0.197265625,4,1,15,80,7,1376.67578125,823.928894042969,0,1,faces,female,0,1,faces,A,female,VS,F,209,J04,873.638671875,0.18181818181818182,0.18181818181818182,-0.3181818181818182,-0.3181818181818182,1,0
0,1,0,30391,1.3671875,0.25390625,5,0,13,70,8,1240.91711425781,714.421630859375,0,1,faces,male,0,1,faces,A,female,VS,F,209,J04,873.638671875,0.2727272727272727,0.2727272727272727,-0.2272727272727273,-0.2272727272727273,1,0
0,1,0,30392,1.63671875,0.193359375,6,0,14,77,9,1356.61950683594,543.205078125,0,1,faces,female,0,1,faces,A,female,VS,F,209,J04,873.638671875,0.36363636363636365,0.36363636363636365,-0.13636363636363635,-0.13636363636363635,1,0
0,1,0,30393,1.8671875,0.13671875,7,0,12,65,10,1232.51721191406,261.045593261719,0,1,objects,big,0,1,faces,A,female,VS,F,209,J04,873.638671875,0.45454545454545453,0.45454545454545453,-0.04545454545454547,-0.04545454545454547,1,0
0,1,0,30394,2.0234375,0.150390625,8,0,7,48,11,1037.37561035156,335.973266601562,0,1,objects,small,0,1,faces,A,female,VS,F,209,J04,873.638671875,0.5454545454545454,0.5454545454545454,0.045454545454545414,0.045454545454545414,1,0
0,1,0,30395,2.193359375,0.14453125,9,0,5,30,12,839.301391601562,322.386657714844,0,1,objects,small,0,1,faces,A,female,VS,F,209,J04,873.638671875,0.6363636363636364,0.6363636363636364,0.13636363636363635,0.13636363636363635,1,0
0,1,0,30396,2.359375,0.263671875,10,0,4,20,13,741.980651855469,253.228759765625,0,1,faces,male,0,1,faces,A,female,VS,F,209,J04,873.638671875,0.7272727272727273,0.7272727272727273,0.2272727272727273,0.2272727272727273,1,0
0,1,0,30397,2.642578125,0.314453125,11,0,1,1,14,537.881530761719,173.476684570312,0,1,faces,female,0,1,faces,A,female,VS,F,209,J04,873.638671875,0.8181818181818182,0.8181818181818182,0.31818181818181823,0.31818181818181823,1,0
0,1,0,30398,2.998046875,0.291015625,12,0,11,64,15,1225.3271484375,137.812835693359,0,1,faces,male,0,1,faces,A,female,VS,F,209,J04,873.638671875,0.9090909090909091,0.9090909090909091,0.40909090909090906,0.40909090909090906,1,0
0,1,0,30399,3.341796875,0.24609375,13,0,9,53,16,1031.66357421875,849.454711914062,0,1,faces,female,0,1,faces,A,female,VS,F,209,J04,873.638671875,1.0,1.0,0.5,0.5,1,0
0,1,1,24427,0.7265625,0.181640625,2,1,5,21,4,809.598205566406,346.928497314453,0,1,objects,big,0,1,objects,A,big,VS,O,12,E09,46.392578125,0.0,0.0,-0.5,-0.5,1,0
0,1,0,24430,1.287109375,0.236328125,3,1,11,43,7,930.454711914062,698.523254394531,0,1,objects,big,0,1,objects,A,big,VS,O,12,E09,46.392578125,0.16666666666666666,0.1,-0.4,-0.33333333333333337,1,0
0,1,1,24431,1.591796875,0.19921875,4,1,12,47,8,1012.87683105469,249.748825073242,0,1,objects,small,0,1,objects,A,big,VS,O,12,E09,46.392578125,0.3333333333333333,0.2,-0.3,-0.16666666666666669,1,0
0,1,0,24435,2.4296875,0.306640625,5,0,3,5,12,549.551940917969,542.559509277344,0,1,objects,big,0,1,objects,A,big,VS,O,12,E09,46.392578125,0.5,0.3,-0.2,0.0,1,0
0,1,0,24436,2.80078125,0.28125,6,0,1,2,13,541.939697265625,254.892196655273,0,1,objects,small,0,1,objects,A,big,VS,O,12,E09,46.392578125,0.6666666666666666,0.4,-0.09999999999999998,0.16666666666666663,1,0
0,1,0,24437,3.16796875,0.21484375,7,0,14,64,14,1266.09057617188,145.277587890625,0,1,faces,male,0,1,objects,A,big,VS,O,12,E09,46.392578125,0.8333333333333334,0.5,0.0,0.33333333333333337,1,0
0,1,0,24440,3.82421875,0.26953125,8,0,4,16,17,691.084594726562,769.297668457031,0,1,faces,female,0,1,objects,A,big,VS,O,12,E09,46.392578125,1.0,0.6,0.09999999999999998,0.5,1,0
0,1,0,24475,1.330078125,0.205078125,2,1,2,3,5,550.368957519531,339.154388427734,0,1,faces,female,0,1,objects,A,small,VS,O,14,E09,54.791015625,0.0,0.0,-0.5,-0.5,1,0
0,1,1,24477,1.8046875,0.17578125,3,1,11,60,7,1169.47912597656,654.781494140625,0,1,objects,small,0,1,objects,A,small,VS,O,14,E09,54.791015625,0.5,0.1,-0.4,0.0,1,0
0,1,1,24479,2.234375,0.212890625,4,1,8,38,9,996.116088867188,240.016174316406,0,1,objects,big,0,1,objects,A,small,VS,O,14,E09,54.791015625,1.0,0.2,-0.3,0.5,1,0
0,1,1,24617,0.603515625,0.201171875,2,1,10,27,3,756.030578613281,935.338073730469,0,1,faces,male,0,1,faces,A,male,VS,F,20,E09,79.986328125,0.0,0.0,-0.5,-0.5,1,0
0,1,0,24621,1.455078125,0.26953125,3,1,6,14,7,654.001953125,572.41650390625,0,1,faces,female,0,1,faces,A,male,VS,F,20,E09,79.986328125,0.16666666666666666,0.1,-0.4,-0.33333333333333337,1,0
0,1,0,24623,1.951171875,0.166015625,4,1,3,3,9,543.478271484375,327.522247314453,0,1,objects,small,0,1,faces,A,male,VS,F,20,E09,79.986328125,0.3333333333333333,0.2,-0.3,-0.16666666666666669,1,0
0,1,1,24624,2.146484375,0.154296875,5,0,2,2,10,545.287902832031,190.948608398438,0,1,faces,male,0,1,faces,A,male,VS,F,20,E09,79.986328125,0.5,0.3,-0.2,0.0,1,0
0,1,0,24627,2.705078125,0.162109375,6,0,5,12,13,654.752380371094,337.082336425781,0,1,faces,male,0,1,faces,A,male,VS,F,20,E09,79.986328125,0.6666666666666666,0.4,-0.09999999999999998,0.16666666666666663,1,0
0,1,1,24629,3.197265625,0.12109375,7,0,12,31,15,894.135131835938,463.222534179688,0,1,faces,female,0,1,faces,A,male,VS,F,20,E09,79.986328125,0.8333333333333334,0.5,0.0,0.33333333333333337,1,0
0,1,1,24631,3.609375,0.123046875,8,0,15,67,17,1289.94799804688,444.878051757812,0,1,faces,male,0,1,faces,A,male,VS,F,20,E09,79.986328125,1.0,0.6,0.09999999999999998,0.5,1,0
0,1,0,24667,0.462890625,0.216796875,2,1,10,40,2,910.89013671875,446.242492675781,0,1,faces,male,0,1,objects,A,big,EX,O,22,E09,88.384765625,0.0,0.0,-0.5,-0.5,0,1
0,1,1,24670,1.185546875,0.21484375,3,1,3,8,5,555.634338378906,848.309997558594,0,1,faces,male,0,1,objects,A,big,EX,O,22,E09,88.384765625,0.16666666666666666,0.1,-0.4,-0.33333333333333337,0,1
0,1,1,24672,1.654296875,0.162109375,4,1,1,3,7,593.524536132812,363.858703613281,0,1,objects,big,0,1,objects,A,big,EX,O,22,E09,88.384765625,0.3333333333333333,0.2,-0.3,-0.16666666666666669,0,1
0,1,0,24674,2.158203125,0.337890625,5,0,4,11,9,649.319519042969,230.200531005859,0,1,faces,female,0,1,objects,A,big,EX,O,22,E09,88.384765625,0.5,0.3,-0.2,0.0,0,1
0,1,0,24675,2.541015625,0.591796875,6,0,6,28,10,836.611206054688,128.010986328125,0,1,objects,big,0,1,objects,A,big,EX,O,22,E09,88.384765625,0.6666666666666666,0.4,-0.09999999999999998,0.16666666666666663,0,1
0,1,0,24677,3.677734375,0.26171875,7,0,8,31,12,818.822814941406,460.999206542969,0,1,objects,small,0,1,objects,A,big,EX,O,22,E09,88.384765625,0.8333333333333334,0.5,0.0,0.33333333333333337,0,1
0,1,0,24678,3.984375,0.30078125,8,0,2,5,13,601.049743652344,510.155700683594,0,1,faces,male,0,1,objects,A,big,EX,O,22,E09,88.384765625,1.0,0.6,0.09999999999999998,0.5,0,1
0,1,0,24805,0.775390625,0.30078125,2,1,5,19,4,733.347351074219,156.733856201172,0,1,objects,small,0,1,faces,A,female,VS,I,27,E09,109.380859375,0.0,0.0,-0.5,-0.5,1,0
1,1,1,24806,1.1484375,0.26953125,3,1,4,17,5,632.727233886719,831.642150878906,0,1,faces,female,0,1,faces,A,female,VS,I,27,E09,109.380859375,0.1111111111111111,0.1,-0.4,-0.3888888888888889,1,0
0,1,0,24808,1.61328125,0.287109375,4,1,3,16,7,640.387573242188,753.583801269531,0,1,faces,female,0,1,faces,A,female,VS,I,27,E09,109.380859375,0.2222222222222222,0.2,-0.3,-0.2777777777777778,1,0
0,1,1,24811,2.43359375,0.177734375,6,0,13,63,10,1145.46630859375,928.742614746094,0,1,faces,male,0,1,faces,A,female,VS,I,27,E09,109.380859375,0.4444444444444444,0.4,-0.09999999999999998,-0.05555555555555558,1,0
0,1,0,24813,2.794921875,0.21484375,7,0,12,62,12,1164.97058105469,850.302001953125,0,1,faces,male,0,1,faces,A,female,VS,I,27,E09,109.380859375,0.5555555555555556,0.5,0.0,0.05555555555555558,1,0
0,1,0,24814,3.05859375,0.205078125,8,0,15,80,13,1375.07495117188,812.867736816406,0,1,faces,male,0,1,faces,A,female,VS,I,27,E09,109.380859375,0.6666666666666666,0.6,0.09999999999999998,0.16666666666666663,1,0
0,1,0,24815,3.349609375,0.154296875,9,0,14,69,14,1254.60949707031,623.273376464844,0,1,faces,female,0,1,faces,A,female,VS,I,27,E09,109.380859375,0.7777777777777778,0.7,0.19999999999999996,0.2777777777777778,1,0
0,1,1,24816,3.55078125,0.16796875,10,0,11,58,15,1178.72595214844,468.493011474609,0,1,faces,female,0,1,faces,A,female,VS,I,27,E09,109.380859375,0.8888888888888888,0.8,0.30000000000000004,0.38888888888888884,1,0
0,1,0,24818,3.861328125,0.240234375,11,0,9,48,17,1060.06530761719,344.099884033203,0,1,faces,female,0,1,faces,A,female,VS,I,27,E09,109.380859375,1.0,0.9,0.4,0.5,1,0
0,1,0,24896,0.583984375,0.177734375,2,1,1,8,2,579.096740722656,809.168884277344,0,1,objects,big,0,1,faces,A,male,VS,F,30,E09,121.978515625,0.0,0.0,-0.5,-0.5,1,0
0,1,1,24898,0.923828125,0.14453125,3,1,2,11,4,657.722229003906,277.682067871094,0,1,faces,male,0,1,faces,A,male,VS,F,30,E09,121.978515625,0.1111111111111111,0.1,-0.4,-0.3888888888888889,1,0
0,1,0,24900,1.46484375,0.15625,4,1,11,64,6,1271.5517578125,145.856628417969,0,1,objects,big,0,1,faces,A,male,VS,F,30,E09,121.978515625,0.2222222222222222,0.2,-0.3,-0.2777777777777778,1,0
0,1,0,24901,1.708984375,0.234375,5,0,4,19,7,772.000244140625,132.271896362305,0,1,faces,female,0,1,faces,A,male,VS,F,30,E09,121.978515625,0.3333333333333333,0.3,-0.2,-0.16666666666666669,1,0
0,1,0,24902,2.0546875,0.224609375,6,0,14,78,8,1350.18322753906,622.613647460938,0,1,faces,female,0,1,faces,A,male,VS,F,30,E09,121.978515625,0.4444444444444444,0.4,-0.09999999999999998,-0.05555555555555558,1,0
0,1,0,24903,2.32421875,0.22265625,7,0,9,59,9,1174.4775390625,556.353820800781,0,1,faces,male,0,1,faces,A,male,VS,F,30,E09,121.978515625,0.5555555555555556,0.5,0.0,0.05555555555555558,1,0
0,1,0,24904,2.59375,0.32421875,8,0,8,40,10,943.452575683594,414.900360107422,0,1,faces,female,0,1,faces,A,male,VS,F,30,E09,121.978515625,0.6666666666666666,0.6,0.09999999999999998,0.16666666666666663,1,0
0,1,0,24905,2.962890625,0.138671875,9,0,7,39,11,955.128723144531,336.754333496094,0,1,faces,female,0,1,faces,A,male,VS,F,30,E09,121.978515625,0.7777777777777778,0.7,0.19999999999999996,0.2777777777777778,1,0
0,1,1,24906,3.169921875,0.212890625,10,0,12,66,12,1262.01086425781,341.387542724609,0,1,faces,male,0,1,faces,A,male,VS,F,30,E09,121.978515625,0.8888888888888888,0.8,0.30000000000000004,0.38888888888888884,1,0
0,1,1,24908,3.607421875,0.294921875,11,0,15,79,14,1355.16284179688,724.468627929688,0,1,faces,male,0,1,faces,A,male,VS,F,30,E09,121.978515625,1.0,0.9,0.4,0.5,1,0
0,1,0,24930,0.66015625,0.251953125,2,1,9,36,4,828.268493652344,956.427368164062,0,1,faces,female,0,1,faces,A,male,VS,I,31,E09,126.177734375,0.0,0.0,-0.5,-0.5,1,0
0,1,0,24931,0.982421875,0.146484375,3,1,12,54,5,1082.65942382812,961.288208007812,0,1,faces,male,0,1,faces,A,male,VS,I,31,E09,126.177734375,0.125,0.1,-0.4,-0.375,1,0
0,1,0,24932,1.197265625,0.26171875,4,1,8,25,6,743.908264160156,772.717041015625,0,1,objects,big,0,1,faces,A,male,VS,I,31,E09,126.177734375,0.25,0.2,-0.3,-0.25,1,0
0,1,0,24933,1.4921875,0.171875,5,0,4,17,7,631.073425292969,867.921630859375,0,1,objects,small,0,1,faces,A,male,VS,I,31,E09,126.177734375,0.375,0.3,-0.2,-0.125,1,0
0,1,0,24934,1.771484375,0.44921875,6,0,1,5,8,551.432250976562,548.505981445312,0,1,faces,male,0,1,faces,A,male,VS,I,31,E09,126.177734375,0.5,0.4,-0.09999999999999998,0.0,1,0
0,1,0,24936,2.54296875,0.1484375,7,0,14,58,10,1141.58166503906,447.425720214844,0,1,faces,female,0,1,faces,A,male,VS,I,31,E09,126.177734375,0.625,0.5,0.0,0.125,1,0
0,1,0,24937,2.763671875,0.28515625,8,0,2,11,11,701.813781738281,220.902389526367,0,1,faces,female,0,1,faces,A,male,VS,I,31,E09,126.177734375,0.75,0.6,0.09999999999999998,0.25,1,0
0,1,0,24938,3.12890625,0.15234375,9,0,10,46,12,1075.12805175781,113.991645812988,0,1,faces,male,0,1,faces,A,male,VS,I,31,E09,126.177734375,0.875,0.7,0.19999999999999996,0.375,1,0
0,1,0,24940,3.61328125,0.23828125,10,0,6,21,14,761.288269042969,316.670227050781,0,1,faces,male,0,1,faces,A,male,VS,I,31,E09,126.177734375,1.0,0.8,0.30000000000000004,0.5,1,0
0,1,0,24984,0.421875,0.208984375,2,1,4,15,2,651.152770996094,636.636291503906,0,1,faces,male,0,1,objects,A,big,VS,O,33,E09,134.576171875,0.0,0.0,-0.5,-0.5,1,0
0,1,0,24986,0.85546875,0.3828125,3,1,2,7,4,527.71337890625,764.609558105469,0,1,objects,big,0,1,objects,A,big,VS,O,33,E09,134.576171875,0.125,0.1,-0.4,-0.375,1,0
0,1,0,24988,1.48828125,0.236328125,4,1,15,81,6,1360.23083496094,927.716247558594,0,1,objects,big,0,1,objects,A,big,VS,O,33,E09,134.576171875,0.25,0.2,-0.3,-0.25,1,0
0,1,0,24990,2.017578125,0.3203125,5,0,14,80,8,1384.98107910156,822.199401855469,0,1,objects,big,0,1,objects,A,big,VS,O,33,E09,134.576171875,0.375,0.3,-0.2,-0.125,1,0
0,1,0,24991,2.4140625,0.1953125,6,0,13,74,9,1395.85375976562,226.204727172852,0,1,faces,male,0,1,objects,A,big,VS,O,33,E09,134.576171875,0.5,0.4,-0.09999999999999998,0.0,1,0
0,1,0,24993,2.728515625,0.17578125,7,0,11,46,11,1023.15814208984,139.14030456543,0,1,faces,male,0,1,objects,A,big,VS,O,33,E09,134.576171875,0.625,0.5,0.0,0.125,1,0
0,1,0,24995,3.119140625,0.15625,8,0,1,1,13,553.799682617188,166.009368896484,0,1,faces,male,0,1,objects,A,big,VS,O,33,E09,134.576171875,0.75,0.6,0.09999999999999998,0.25,1,0
0,1,0,24997,3.5546875,0.1171875,9,0,6,21,15,759.997131347656,364.284057617188,0,1,faces,female,0,1,objects,A,big,VS,O,33,E09,134.576171875,0.875,0.7,0.19999999999999996,0.375,1,0
0,1,0,24998,3.73828125,0.17578125,10,0,10,38,16,954.432556152344,283.5908203125,0,1,faces,female,0,1,objects,A,big,VS,O,33,E09,134.576171875,1.0,0.8,0.30000000000000004,0.5,1,0
0,1,1,25013,1.26953125,0.1484375,2,1,7,23,5,735.127136230469,574.93603515625,0,1,faces,male,0,1,faces,A,female,VS,F,34,E09,138.775390625,0.0,0.0,-0.5,-0.5,1,0
1,1,0,25015,1.626953125,0.1484375,3,1,4,7,7,561.532287597656,713.102416992188,0,1,objects,big,0,1,faces,A,female,VS,F,34,E09,138.775390625,0.16666666666666666,0.1,-0.4,-0.33333333333333337,1,0
0,1,1,25016,1.853515625,0.13671875,4,1,2,4,8,557.513305664062,398.352752685547,0,1,faces,female,0,1,faces,A,female,VS,F,34,E09,138.775390625,0.3333333333333333,0.2,-0.3,-0.16666666666666669,1,0
0,1,0,25022,3.130859375,0.197265625,5,0,12,60,14,1162.38818359375,645.516723632812,0,1,faces,female,0,1,faces,A,female,VS,F,34,E09,138.775390625,0.5,0.3,-0.2,0.0,1,0
0,1,0,25023,3.396484375,0.22265625,6,0,5,17,15,658.472106933594,848.580749511719,0,1,faces,male,0,1,faces,A,female,VS,F,34,E09,138.775390625,0.6666666666666666,0.4,-0.09999999999999998,0.16666666666666663,1,0
0,1,0,25025,3.78515625,0.13671875,8,0,3,6,17,566.820007324219,682.969055175781,0,1,objects,big,0,1,faces,A,female,VS,F,34,E09,138.775390625,1.0,0.6,0.09999999999999998,0.5,1,0
1,1,0,25037,0.888671875,0.29296875,2,1,10,38,3,927.05126953125,230.969955444336,0,1,objects,small,0,1,objects,A,small,VS,O,35,E09,142.974609375,0.0,0.0,-0.5,-0.5,1,0
0,1,1,25040,1.7734375,0.15625,3,1,11,63,6,1116.43933105469,907.614379882812,0,1,faces,male,0,1,objects,A,small,VS,O,35,E09,142.974609375,0.14285714285714285,0.1,-0.4,-0.35714285714285715,1,0
0,1,0,25042,2.193359375,0.173828125,4,1,5,14,8,684.403991699219,500.562683105469,0,1,faces,male,0,1,objects,A,small,VS,O,35,E09,142.974609375,0.2857142857142857,0.2,-0.3,-0.2142857142857143,1,0
0,1,0,25043,2.408203125,0.111328125,5,0,3,4,9,571.979858398438,436.658813476562,0,1,faces,female,0,1,objects,A,small,VS,O,35,E09,142.974609375,0.42857142857142855,0.3,-0.2,-0.07142857142857145,1,0
0,1,0,25047,3.05078125,0.166015625,7,0,14,73,13,1387.92736816406,186.268371582031,0,1,faces,male,0,1,objects,A,small,VS,O,35,E09,142.974609375,0.7142857142857143,0.5,0.0,0.2142857142857143,1,0
0,1,1,25049,3.466796875,0.166015625,9,0,4,11,15,702.135437011719,247.296829223633,0,1,objects,small,0,1,objects,A,small,VS,O,35,E09,142.974609375,1.0,0.7,0.19999999999999996,0.5,1,0
0,1,1,25187,0.548828125,0.169921875,2,1,2,3,3,585.219970703125,363.133819580078,0,1,faces,female,0,1,objects,A,big,EX,O,40,E09,163.970703125,0.0,0.0,-0.5,-0.5,0,1
0,1,0,25189,0.98046875,0.244140625,3,1,1,2,5,583.936950683594,269.324066162109,0,1,objects,small,0,1,objects,A,big,EX,O,40,E09,163.970703125,0.125,0.1,-0.4,-0.375,0,1
0,1,0,25191,1.423828125,0.23828125,4,1,3,19,7,772.050231933594,176.47917175293,0,1,faces,male,0,1,objects,A,big,EX,O,40,E09,163.970703125,0.25,0.2,-0.3,-0.25,0,1
0,1,0,25194,2.1953125,0.119140625,5,0,13,57,10,1185.42846679688,383.420318603516,0,1,objects,big,0,1,objects,A,big,EX,O,40,E09,163.970703125,0.375,0.3,-0.2,-0.125,0,1
0,1,1,25195,2.359375,0.1875,6,0,15,77,11,1353.15148925781,576.348083496094,0,1,faces,female,0,1,objects,A,big,EX,O,40,E09,163.970703125,0.5,0.4,-0.09999999999999998,0.0,0,1
0,1,1,25199,3.109375,0.173828125,8,0,6,33,15,837.012817382812,651.427734375,0,1,faces,female,0,1,objects,A,big,EX,O,40,E09,163.970703125,0.75,0.6,0.09999999999999998,0.25,0,1
0,1,0,25201,3.53125,0.154296875,9,0,5,26,17,735.491882324219,802.895812988281,0,1,faces,male,0,1,objects,A,big,EX,O,40,E09,163.970703125,0.875,0.7,0.19999999999999996,0.375,0,1
0,1,0,25202,3.70703125,0.1875,10,0,4,25,18,758.80224609375,790.386291503906,0,1,faces,male,0,1,objects,A,big,EX,O,40,E09,163.970703125,1.0,0.8,0.30000000000000004,0.5,0,1
0,1,0,25337,2.646484375,0.181640625,2,1,11,60,6,1156.47521972656,629.151184082031,0,1,objects,small,0,1,faces,A,male,EX,F,45,E09,184.966796875,0.0,0.0,-0.5,-0.5,0,1
0,1,0,25340,3.466796875,0.20703125,3,1,14,73,9,1375.63537597656,140.274002075195,0,1,objects,big,0,1,faces,A,male,EX,F,45,E09,184.966796875,1.0,0.1,-0.4,0.5,0,1
0,1,1,25544,1.39453125,0.21484375,2,1,4,7,7,586.70654296875,718.882019042969,0,1,faces,male,0,1,objects,A,big,VS,O,59,E09,243.755859375,0.0,0.0,-0.5,-0.5,1,0
0,1,0,25547,1.931640625,0.29296875,3,1,6,14,10,648.495910644531,547.75634765625,0,1,faces,male,0,1,objects,A,big,VS,O,59,E09,243.755859375,0.3333333333333333,0.1,-0.4,-0.16666666666666669,1,0
0,1,0,25552,3.228515625,0.11328125,4,1,7,18,15,654.267028808594,978.713439941406,0,1,objects,big,0,1,objects,A,big,VS,O,59,E09,243.755859375,0.6666666666666666,0.2,-0.3,0.16666666666666663,1,0
0,1,0,25554,3.646484375,0.138671875,5,0,5,12,17,655.4609375,377.667358398438,0,1,faces,female,0,1,objects,A,big,VS,O,59,E09,243.755859375,1.0,0.3,-0.2,0.5,1,0
0,1,0,25614,2.15234375,0.126953125,2,1,13,74,13,1355.5107421875,203.638732910156,0,1,faces,female,0,1,faces,A,female,VS,F,61,E09,252.154296875,0.0,0.0,-0.5,-0.5,1,0
1,1,0,25615,2.30859375,0.21484375,3,1,12,73,14,1311.201171875,155.820999145508,0,1,faces,female,0,1,faces,A,female,VS,F,61,E09,252.154296875,0.16666666666666666,0.1,-0.4,-0.33333333333333337,1,0
0,1,0,25616,2.544921875,0.36328125,4,1,10,64,15,1285.91418457031,147.351715087891,0,1,faces,female,0,1,faces,A,female,VS,F,61,E09,252.154296875,0.3333333333333333,0.2,-0.3,-0.16666666666666669,1,0
0,1,0,25619,3.40625,0.103515625,6,0,1,3,18,593.109985351562,372.729400634766,0,1,objects,big,0,1,faces,A,female,VS,F,61,E09,252.154296875,0.6666666666666666,0.4,-0.09999999999999998,0.16666666666666663,1,0
0,1,0,25620,3.541015625,0.150390625,7,0,2,4,19,544.783264160156,466.563018798828,0,1,faces,male,0,1,faces,A,female,VS,F,61,E09,252.154296875,0.8333333333333334,0.5,0.0,0.33333333333333337,1,0
0,1,0,25622,3.9140625,0.150390625,8,0,8,49,21,1066.64416503906,443.416900634766,0,1,faces,male,0,1,faces,A,female,VS,F,61,E09,252.154296875,1.0,0.6,0.09999999999999998,0.5,1,0
0,1,0,25774,1.77734375,0.189453125,2,1,7,49,3,1077.53259277344,456.384796142578,0,1,faces,male,0,1,objects,A,small,EX,O,66,E09,273.150390625,0.0,0.0,-0.5,-0.5,0,1
0,1,0,25776,2.29296875,0.228515625,3,1,2,13,5,671.065246582031,465.170379638672,0,1,faces,male,0,1,objects,A,small,EX,O,66,E09,273.150390625,1.0,0.1,-0.4,0.5,0,1
0,1,0,25887,0.998046875,0.115234375,2,1,1,1,6,553.407653808594,170.499862670898,0,1,faces,male,0,1,faces,A,male,VS,I,69,E09,285.748046875,0.0,0.0,-0.5,-0.5,1,0
0,1,0,25892,2.2109375,0.23828125,4,1,13,59,11,1191.53918457031,558.284118652344,0,1,objects,big,0,1,faces,A,male,VS,I,69,E09,285.748046875,0.5,0.2,-0.3,0.0,1,0
0,1,1,25893,2.5546875,0.16015625,5,0,10,33,12,883.006652832031,608.430419921875,0,1,objects,small,0,1,faces,A,male,VS,I,69,E09,285.748046875,0.75,0.3,-0.2,0.25,1,0
1,1,1,25895,3.134765625,0.20703125,6,0,7,26,14,747.847045898438,835.747192382812,0,1,faces,female,0,1,faces,A,male,VS,I,69,E09,285.748046875,1.0,0.4,-0.09999999999999998,0.5,1,0
0,1,1,25953,3.11328125,0.12890625,2,1,8,33,10,845.313354492188,690.086303710938,0,1,objects,small,0,1,faces,A,male,EX,F,71,E09,294.146484375,0.0,0.0,-0.5,-0.5,0,1
0,1,0,25955,3.373046875,0.287109375,3,1,9,50,12,1062.40478515625,572.361145019531,0,1,faces,female,0,1,faces,A,male,EX,F,71,E09,294.146484375,1.0,0.1,-0.4,0.5,0,1
1,1,0,26393,1.3671875,0.208984375,2,1,6,31,6,902.042114257812,462.122406005859,0,1,faces,male,0,1,objects,A,small,VS,O,74,E09,306.744140625,0.0,0.0,-0.5,-0.5,1,0
0,1,0,26396,2.076171875,0.17578125,3,1,13,69,9,1232.09204101562,608.507873535156,0,1,faces,female,0,1,objects,A,small,VS,O,74,E09,306.744140625,0.25,0.1,-0.4,-0.25,1,0
0,1,0,26401,3.173828125,0.1640625,4,1,11,45,14,1002.38000488281,959.984558105469,0,1,faces,male,0,1,objects,A,small,VS,O,74,E09,306.744140625,0.5,0.2,-0.3,0.0,1,0
0,1,0,26402,3.408203125,0.1484375,5,0,10,43,15,976.060729980469,723.028869628906,0,1,faces,male,0,1,objects,A,small,VS,O,74,E09,306.744140625,0.75,0.3,-0.2,0.25,1,0
0,1,0,26403,3.587890625,0.185546875,6,0,7,33,16,908.905029296875,659.302124023438,0,1,objects,big,0,1,objects,A,small,VS,O,74,E09,306.744140625,1.0,0.4,-0.09999999999999998,0.5,1,0
0,1,0,26439,1.466796875,0.185546875,2,1,13,73,7,1361.82751464844,136.102294921875,0,1,faces,female,0,1,objects,A,big,VS,O,75,E09,310.943359375,0.0,0.0,-0.5,-0.5,1,0
0,1,0,26441,1.8671875,0.130859375,3,1,8,37,9,1009.45404052734,156.418838500977,0,1,objects,small,0,1,objects,A,big,VS,O,75,E09,310.943359375,0.5,0.1,-0.4,0.0,1,0
0,1,1,26447,3.07421875,0.1015625,4,1,9,43,15,920.050231933594,763.7060546875,0,1,objects,small,0,1,objects,A,big,VS,O,75,E09,310.943359375,1.0,0.2,-0.3,0.5,1,0
0,1,1,26530,0.626953125,0.212890625,2,1,3,13,4,681.606384277344,435.961547851562,0,1,faces,male,0,1,faces,A,female,VS,I,77,E09,319.341796875,0.0,0.0,-0.5,-0.5,1,0
0,1,0,26532,1.103515625,0.234375,3,1,2,6,6,553.372131347656,638.981811523438,0,1,faces,female,0,1,faces,A,female,VS,I,77,E09,319.341796875,0.2,0.1,-0.4,-0.3,1,0
0,1,0,26536,2.060546875,0.201171875,5,0,14,76,10,1403.02197265625,416.14892578125,0,1,faces,female,0,1,faces,A,female,VS,I,77,E09,319.341796875,0.6,0.3,-0.2,0.09999999999999998,1,0
0,1,1,26541,2.75,0.111328125,6,0,6,33,15,900.3173828125,682.490661621094,0,1,faces,male,0,1,faces,A,female,VS,I,77,E09,319.341796875,0.8,0.4,-0.09999999999999998,0.30000000000000004,1,0
0,1,0,26544,3.3359375,0.123046875,7,0,4,17,18,650.858764648438,885.988098144531,0,1,faces,male,0,1,faces,A,female,VS,I,77,E09,319.341796875,1.0,0.5,0.0,0.5,1,0
0,1,0,26573,0.556640625,0.220703125,2,1,1,1,2,609.093078613281,151.279479980469,0,1,faces,female,0,1,faces,A,female,EX,F,78,E09,323.541015625,0.0,0.0,-0.5,-0.5,0,1
0,1,0,26575,1.35546875,0.263671875,4,1,7,38,4,992.807983398438,259.107818603516,0,1,objects,big,0,1,faces,A,female,EX,F,78,E09,323.541015625,0.3333333333333333,0.2,-0.3,-0.16666666666666669,0,1
0,1,0,26576,1.65625,0.458984375,5,0,8,48,5,1095.21557617188,340.767211914062,0,1,faces,male,0,1,faces,A,female,EX,F,78,E09,323.541015625,0.5,0.3,-0.2,0.0,0,1
0,1,0,26578,2.525390625,0.638671875,6,0,14,68,7,1309.69653320312,540.549255371094,0,1,faces,male,0,1,faces,A,female,EX,F,78,E09,323.541015625,0.6666666666666666,0.4,-0.09999999999999998,0.16666666666666663,0,1
0,1,0,26579,3.2265625,0.328125,7,0,10,50,8,1109.69982910156,493.067321777344,0,1,objects,small,0,1,faces,A,female,EX,F,78,E09,323.541015625,0.8333333333333334,0.5,0.0,0.33333333333333337,0,1
0,1,0,26580,3.595703125,0.15625,8,0,13,60,9,1156.83032226562,613.376708984375,0,1,faces,female,0,1,faces,A,female,EX,F,78,E09,323.541015625,1.0,0.6,0.09999999999999998,0.5,0,1
0,1,0,26719,0.693359375,0.185546875,2,1,5,19,3,769.157897949219,187.31071472168,0,1,faces,female,0,1,faces,A,male,VS,I,83,E09,344.537109375,0.0,0.0,-0.5,-0.5,1,0
0,1,0,26720,0.912109375,0.271484375,3,1,7,28,4,830.075317382812,158.466384887695,0,1,faces,female,0,1,faces,A,male,VS,I,83,E09,344.537109375,0.2,0.1,-0.4,-0.3,1,0
0,1,1,26726,2.361328125,0.212890625,4,1,3,13,10,695.520080566406,479.046539306641,0,1,faces,female,0,1,faces,A,male,VS,I,83,E09,344.537109375,0.4,0.2,-0.3,-0.09999999999999998,1,0
0,1,0,26728,2.884765625,0.138671875,5,0,12,54,12,1036.06665039062,906.7294921875,0,1,faces,male,0,1,faces,A,male,VS,I,83,E09,344.537109375,0.6,0.3,-0.2,0.09999999999999998,1,0
0,1,0,26729,3.08203125,0.177734375,6,0,4,18,13,695.583435058594,970.461791992188,0,1,faces,female,0,1,faces,A,male,VS,I,83,E09,344.537109375,0.8,0.4,-0.09999999999999998,0.30000000000000004,1,0
0,1,0,26733,3.806640625,0.20703125,7,0,11,53,17,1109.44213867188,791.32177734375,0,1,objects,big,0,1,faces,A,male,VS,I,83,E09,344.537109375,1.0,0.5,0.0,0.5,1,0
0,1,1,26746,0.478515625,0.1640625,2,1,1,7,2,584.942443847656,699.588928222656,0,1,faces,female,0,1,objects,A,small,EX,O,84,E09,348.736328125,0.0,0.0,-0.5,-0.5,0,1
0,1,0,26748,0.994140625,0.1328125,3,1,12,67,4,1243.25415039062,481.122467041016,0,1,objects,small,0,1,objects,A,small,EX,O,84,E09,348.736328125,0.2,0.1,-0.4,-0.3,0,1
0,1,1,26749,1.16015625,0.1015625,4,1,11,58,5,1183.62927246094,442.187316894531,0,1,faces,male,0,1,objects,A,small,EX,O,84,E09,348.736328125,0.4,0.2,-0.3,-0.09999999999999998,0,1
0,1,1,26754,2.42578125,0.138671875,5,0,6,42,10,990.560607910156,656.096252441406,0,1,faces,female,0,1,objects,A,small,EX,O,84,E09,348.736328125,0.6,0.3,-0.2,0.09999999999999998,0,1
0,1,0,26757,3.134765625,0.181640625,6,0,9,54,13,1099.00427246094,948.458923339844,0,1,objects,big,0,1,objects,A,small,EX,O,84,E09,348.736328125,0.8,0.4,-0.09999999999999998,0.30000000000000004,0,1
0,1,1,26758,3.35546875,0.19921875,7,0,5,36,14,871.427490234375,958.177001953125,0,1,faces,female,0,1,objects,A,small,EX,O,84,E09,348.736328125,1.0,0.5,0.0,0.5,0,1
0,1,0,26820,0.4765625,0.1171875,2,1,3,11,3,687.033081054688,208.411361694336,0,1,faces,female,0,1,faces,A,male,EX,F,87,E09,361.333984375,0.0,0.0,-0.5,-0.5,0,1
0,1,0,26821,0.6328125,0.19140625,3,1,2,10,4,625.627746582031,145.649917602539,0,1,faces,female,0,1,faces,A,male,EX,F,87,E09,361.333984375,1.0,0.1,-0.4,0.5,0,1
0,1,0,27121,0.54296875,0.166015625,2,1,4,11,3,633.675354003906,264.562652587891,0,1,faces,female,0,1,faces,A,female,EX,F,99,E09,411.724609375,0.0,0.0,-0.5,-0.5,0,1
0,1,1,27122,1.5078125,0.326171875,3,1,2,5,4,542.942993164062,539.05419921875,0,1,faces,male,0,1,faces,A,female,EX,F,99,E09,411.724609375,0.2,0.1,-0.4,-0.3,0,1
0,1,0,27124,2.076171875,0.197265625,4,1,1,4,6,567.835266113281,456.051513671875,0,1,objects,big,0,1,faces,A,female,EX,F,99,E09,411.724609375,0.4,0.2,-0.3,-0.09999999999999998,0,1
0,1,1,27125,2.37109375,0.173828125,5,0,3,9,7,537.923522949219,921.269836425781,0,1,faces,female,0,1,faces,A,female,EX,F,99,E09,411.724609375,0.6,0.3,-0.2,0.09999999999999998,0,1
0,1,0,27128,3.09375,0.564453125,6,0,10,50,10,1074.07788085938,537.096740722656,0,1,faces,male,0,1,faces,A,female,EX,F,99,E09,411.724609375,0.8,0.4,-0.09999999999999998,0.30000000000000004,0,1
0,1,1,27129,3.697265625,0.22265625,7,0,9,49,11,1072.44689941406,420.191925048828,0,1,faces,female,0,1,faces,A,female,EX,F,99,E09,411.724609375,1.0,0.5,0.0,0.5,0,1
0,1,0,27178,0.51953125,0.26171875,2,1,1,5,2,556.773742675781,537.738403320312,0,1,objects,small,0,1,faces,A,female,EX,I,101,E09,420.123046875,0.0,0.0,-0.5,-0.5,0,1
0,1,0,27182,1.93359375,0.25390625,4,1,14,75,6,1388.71923828125,339.496612548828,0,1,faces,female,0,1,faces,A,female,EX,I,101,E09,420.123046875,1.0,0.2,-0.3,0.5,0,1
0,1,1,27257,0.50390625,0.1875,2,1,1,18,2,620.736511230469,923.586364746094,0,1,faces,female,0,1,objects,A,big,EX,O,104,E09,432.720703125,0.0,0.0,-0.5,-0.5,0,1
0,1,0,27259,0.86328125,0.263671875,3,1,6,45,4,988.766174316406,961.422424316406,0,1,objects,big,0,1,objects,A,big,EX,O,104,E09,432.720703125,0.2,0.1,-0.4,-0.3,0,1
0,1,0,27260,1.22265625,0.14453125,4,1,8,58,5,1161.84594726562,489.812072753906,0,1,faces,male,0,1,objects,A,big,EX,O,104,E09,432.720703125,0.4,0.2,-0.3,-0.09999999999999998,0,1
0,1,0,27262,1.6796875,0.16015625,5,0,4,37,7,980.939514160156,135.542846679688,0,1,faces,female,0,1,objects,A,big,EX,O,104,E09,432.720703125,0.6,0.3,-0.2,0.09999999999999998,0,1
0,1,0,27263,1.912109375,0.474609375,6,0,14,73,8,1381.54614257812,135.023452758789,0,1,objects,small,0,1,objects,A,big,EX,O,104,E09,432.720703125,0.8,0.4,-0.09999999999999998,0.30000000000000004,0,1
0,1,0,27264,3.349609375,0.279296875,7,0,7,48,9,1068.09558105469,350.045013427734,0,1,objects,small,0,1,objects,A,big,EX,O,104,E09,432.720703125,1.0,0.5,0.0,0.5,0,1
1,1,0,27317,0.896484375,0.197265625,2,1,7,39,4,961.85107421875,329.891632080078,0,1,faces,male,0,1,faces,A,female,VS,F,106,E09,441.119140625,0.0,0.0,-0.5,-0.5,1,0
0,1,1,27318,1.185546875,0.150390625,3,1,5,28,5,854.263793945312,93.6756896972656,0,1,faces,male,0,1,faces,A,female,VS,F,106,E09,441.119140625,0.125,0.1,-0.4,-0.375,1,0
0,1,0,27320,1.587890625,0.212890625,4,1,10,64,7,1247.35168457031,125.802383422852,0,1,faces,female,0,1,faces,A,female,VS,F,106,E09,441.119140625,0.25,0.2,-0.3,-0.25,1,0
0,1,0,27321,1.830078125,0.197265625,5,0,8,55,8,1184.02185058594,127.783897399902,0,1,faces,male,0,1,faces,A,female,VS,F,106,E09,441.119140625,0.375,0.3,-0.2,-0.125,1,0
0,1,0,27322,2.068359375,0.21875,6,0,14,73,9,1371.96691894531,131.669723510742,0,1,faces,female,0,1,faces,A,female,VS,F,106,E09,441.119140625,0.5,0.4,-0.09999999999999998,0.0,1,0
0,1,0,27327,3.287109375,0.1875,8,0,4,26,14,759.025939941406,855.088195800781,0,1,objects,big,0,1,faces,A,female,VS,F,106,E09,441.119140625,0.75,0.6,0.09999999999999998,0.25,1,0
0,1,0,27328,3.5078125,0.20703125,9,0,6,35,15,864.088134765625,855.035095214844,0,1,faces,female,0,1,faces,A,female,VS,F,106,E09,441.119140625,0.875,0.7,0.19999999999999996,0.375,1,0
0,1,0,27329,3.783203125,0.236328125,10,0,13,71,16,1222.1259765625,838.813659667969,0,1,faces,female,0,1,faces,A,female,VS,F,106,E09,441.119140625,1.0,0.8,0.30000000000000004,0.5,1,0
0,1,0,27389,0.84765625,0.17578125,2,1,15,72,5,1227.77819824219,941.4716796875,0,1,objects,big,0,1,faces,A,male,VS,F,109,E09,453.716796875,0.0,0.0,-0.5,-0.5,1,0
1,1,0,27391,1.314453125,0.220703125,3,1,7,25,7,766.999145507812,748.22119140625,0,1,faces,female,0,1,faces,A,male,VS,F,109,E09,453.716796875,0.125,0.1,-0.4,-0.375,1,0
0,1,0,27392,1.560546875,0.205078125,4,1,6,24,8,766.05615234375,680.290161132812,0,1,faces,female,0,1,faces,A,male,VS,F,109,E09,453.716796875,0.25,0.2,-0.3,-0.25,1,0
0,1,0,27393,1.845703125,0.28125,5,0,13,60,9,1173.73522949219,671.203552246094,0,1,faces,female,0,1,faces,A,male,VS,F,109,E09,453.716796875,0.375,0.3,-0.2,-0.125,1,0
0,1,0,27396,2.47265625,0.2109375,6,0,3,19,12,771.378173828125,189.843460083008,0,1,faces,male,0,1,faces,A,male,VS,F,109,E09,453.716796875,0.5,0.4,-0.09999999999999998,0.0,1,0
0,1,0,27397,2.724609375,0.181640625,7,0,4,21,13,768.669677734375,387.300903320312,0,1,faces,female,0,1,faces,A,male,VS,F,109,E09,453.716796875,0.625,0.5,0.0,0.125,1,0
0,1,0,27398,2.990234375,0.17578125,8,0,14,67,14,1261.79968261719,402.826568603516,0,1,faces,female,0,1,faces,A,male,VS,F,109,E09,453.716796875,0.75,0.6,0.09999999999999998,0.25,1,0
0,1,0,27399,3.208984375,0.166015625,9,0,11,58,15,1172.97680664062,400.5068359375,0,1,faces,male,0,1,faces,A,male,VS,F,109,E09,453.716796875,0.875,0.7,0.19999999999999996,0.375,1,0
0,1,0,27400,3.396484375,0.111328125,10,0,10,57,16,1170.99182128906,368.777954101562,0,1,faces,male,0,1,faces,A,male,VS,F,109,E09,453.716796875,1.0,0.8,0.30000000000000004,0.5,1,0
0,1,0,27415,0.814453125,0.26953125,2,1,2,9,4,548.556335449219,962.200500488281,0,1,faces,male,0,1,objects,A,big,VS,O,110,E09,457.916015625,0.0,0.0,-0.5,-0.5,1,0
0,1,1,27417,1.439453125,0.16015625,3,1,15,79,6,1353.52917480469,701.3310546875,0,1,objects,big,0,1,objects,A,big,VS,O,110,E09,457.916015625,0.16666666666666666,0.1,-0.4,-0.33333333333333337,1,0
0,1,0,27420,2.0859375,0.10546875,4,1,5,46,9,1083.7724609375,133.240966796875,0,1,faces,female,0,1,objects,A,big,VS,O,110,E09,457.916015625,0.3333333333333333,0.2,-0.3,-0.16666666666666669,1,0
0,1,0,27422,2.505859375,0.115234375,5,0,9,60,11,1196.28137207031,648.622375488281,0,1,faces,female,0,1,objects,A,big,VS,O,110,E09,457.916015625,0.5,0.3,-0.2,0.0,1,0
0,1,0,27424,3.001953125,0.3828125,7,0,4,33,13,865.525268554688,618.763671875,0,1,objects,small,0,1,objects,A,big,VS,O,110,E09,457.916015625,0.8333333333333334,0.5,0.0,0.33333333333333337,1,0
0,1,0,27426,3.634765625,0.173828125,8,0,3,30,15,875.707397460938,329.973175048828,0,1,objects,big,0,1,objects,A,big,VS,O,110,E09,457.916015625,1.0,0.6,0.09999999999999998,0.5,1,0
0,1,0,27445,0.55078125,0.1640625,2,1,13,53,2,1015.30181884766,855.643127441406,0,1,objects,big,0,1,objects,A,small,VS,O,111,E09,462.115234375,0.0,0.0,-0.5,-0.5,1,0
1,1,0,27446,0.76171875,0.25,3,1,5,26,3,756.222717285156,833.787963867188,0,1,objects,small,0,1,objects,A,small,VS,O,111,E09,462.115234375,0.2,0.1,-0.4,-0.3,1,0
1,1,0,27450,1.705078125,0.19140625,4,1,10,37,7,923.411804199219,130.869979858398,0,1,objects,small,0,1,objects,A,small,VS,O,111,E09,462.115234375,0.4,0.2,-0.3,-0.09999999999999998,1,0
0,1,0,27454,2.736328125,0.205078125,6,0,7,32,11,880.1474609375,551.411743164062,0,1,faces,female,0,1,objects,A,small,VS,O,111,E09,462.115234375,0.8,0.4,-0.09999999999999998,0.30000000000000004,1,0
0,1,0,27455,2.98828125,0.189453125,7,0,1,7,12,586.825744628906,691.932922363281,0,1,objects,big,0,1,objects,A,small,VS,O,111,E09,462.115234375,1.0,0.5,0.0,0.5,1,0
0,1,0,27477,0.544921875,0.236328125,2,1,2,2,2,570.956420898438,264.460906982422,0,1,faces,female,0,1,faces,A,male,EX,F,112,E09,466.314453125,0.0,0.0,-0.5,-0.5,0,1
0,1,0,27478,1.474609375,0.306640625,3,1,1,1,3,558.841430664062,119.74779510498,0,1,faces,female,0,1,faces,A,male,EX,F,112,E09,466.314453125,0.2,0.1,-0.4,-0.3,0,1
0,1,0,27480,2.076171875,0.12109375,4,1,7,48,5,1098.36401367188,324.093627929688,0,1,faces,female,0,1,faces,A,male,EX,F,112,E09,466.314453125,0.4,0.2,-0.3,-0.09999999999999998,0,1
0,1,0,27481,2.306640625,0.1875,5,0,4,21,6,807.006408691406,344.401000976562,0,1,objects,small,0,1,faces,A,male,EX,F,112,E09,466.314453125,0.6,0.3,-0.2,0.09999999999999998,0,1
0,1,0,27483,3.755859375,0.27734375,7,0,8,49,8,1060.10095214844,408.674133300781,0,1,faces,male,0,1,faces,A,male,EX,F,112,E09,466.314453125,1.0,0.5,0.0,0.5,0,1
0,1,0,27582,0.673828125,0.158203125,2,1,1,2,4,570.675415039062,256.231170654297,0,1,faces,female,0,1,objects,A,small,EX,O,120,E09,499.908203125,0.0,0.0,-0.5,-0.5,0,1
0,1,0,27583,1.83984375,0.3359375,3,1,13,65,5,1285.65478515625,238.201507568359,0,1,faces,female,0,1,objects,A,small,EX,O,120,E09,499.908203125,0.25,0.1,-0.4,-0.25,0,1
0,1,0,27585,2.556640625,0.24609375,4,1,12,50,7,1047.00341796875,513.350891113281,0,1,objects,small,0,1,objects,A,small,EX,O,120,E09,499.908203125,0.5,0.2,-0.3,0.0,0,1
0,1,0,27586,2.83984375,0.408203125,5,0,8,40,8,979.529663085938,431.235076904297,0,1,faces,female,0,1,objects,A,small,EX,O,120,E09,499.908203125,0.75,0.3,-0.2,0.25,0,1
0,1,0,27588,3.716796875,0.287109375,6,0,5,31,10,880.424987792969,463.675170898438,0,1,faces,male,0,1,objects,A,small,EX,O,120,E09,499.908203125,1.0,0.4,-0.09999999999999998,0.5,0,1
0,1,0,27625,0.7578125,0.32421875,2,1,2,11,4,684.582458496094,232.316482543945,0,1,faces,female,0,1,faces,A,female,EX,F,122,E09,508.306640625,0.0,0.0,-0.5,-0.5,0,1
0,1,0,27627,1.365234375,0.427734375,3,1,11,46,6,1076.92346191406,147.589538574219,0,1,objects,big,0,1,faces,A,female,EX,F,122,E09,508.306640625,0.5,0.1,-0.4,0.0,0,1
0,1,0,27628,1.845703125,0.462890625,4,1,7,19,7,731.046081542969,175.750625610352,0,1,faces,male,0,1,faces,A,female,EX,F,122,E09,508.306640625,1.0,0.2,-0.3,0.5,0,1
0,1,0,27648,0.48828125,0.181640625,2,1,9,51,3,1067.74291992188,657.66845703125,0,1,faces,female,0,1,faces,A,female,VS,I,123,E09,512.505859375,0.0,0.0,-0.5,-0.5,1,0
0,1,0,27649,0.7421875,0.15625,3,1,15,81,4,1311.9833984375,968.904907226562,0,1,faces,male,0,1,faces,A,female,VS,I,123,E09,512.505859375,0.125,0.1,-0.4,-0.375,1,0
0,1,0,27650,0.91796875,0.16015625,4,1,13,72,5,1297.6015625,939.612426757812,0,1,faces,male,0,1,faces,A,female,VS,I,123,E09,512.505859375,0.25,0.2,-0.3,-0.25,1,0
0,1,1,27652,1.3203125,0.185546875,5,0,6,35,7,830.793518066406,873.05517578125,0,1,faces,female,0,1,faces,A,female,VS,I,123,E09,512.505859375,0.375,0.3,-0.2,-0.125,1,0
0,1,0,27654,1.689453125,0.138671875,6,0,8,44,9,1005.40734863281,866.522888183594,0,1,objects,big,0,1,faces,A,female,VS,I,123,E09,512.505859375,0.5,0.4,-0.09999999999999998,0.0,1,0
0,1,0,27655,1.890625,0.138671875,7,0,3,9,10,563.812072753906,974.1787109375,0,1,faces,female,0,1,faces,A,female,VS,I,123,E09,512.505859375,0.625,0.5,0.0,0.125,1,0
0,1,1,27658,2.478515625,0.177734375,8,0,1,1,13,530.557800292969,135.936721801758,0,1,faces,female,0,1,faces,A,female,VS,I,123,E09,512.505859375,0.75,0.6,0.09999999999999998,0.25,1,0
0,1,1,27660,3.013671875,0.11328125,9,0,12,65,15,1308.28271484375,273.686645507812,0,1,objects,small,0,1,faces,A,female,VS,I,123,E09,512.505859375,0.875,0.7,0.19999999999999996,0.375,1,0
0,1,0,27662,3.287109375,0.24609375,10,0,14,76,17,1382.62744140625,437.560485839844,0,1,faces,male,0,1,faces,A,female,VS,I,123,E09,512.505859375,1.0,0.8,0.30000000000000004,0.5,1,0
0,1,0,27671,1.037109375,0.232421875,2,1,12,71,3,1238.17602539062,860.305725097656,0,1,faces,female,0,1,objects,A,big,VS,O,124,E09,516.705078125,0.0,0.0,-0.5,-0.5,1,0
0,1,0,27672,1.392578125,0.228515625,3,1,11,67,4,1249.60546875,420.238006591797,0,1,objects,big,0,1,objects,A,big,VS,O,124,E09,516.705078125,0.2,0.1,-0.4,-0.3,1,0
1,1,1,27674,1.849609375,0.158203125,4,1,15,76,6,1391.03503417969,402.650085449219,0,1,objects,big,0,1,objects,A,big,VS,O,124,E09,516.705078125,0.4,0.2,-0.3,-0.09999999999999998,1,0
0,1,0,27678,3.513671875,0.24609375,6,0,5,37,10,933.832458496094,177.021575927734,0,1,faces,female,0,1,objects,A,big,VS,O,124,E09,516.705078125,0.8,0.4,-0.09999999999999998,0.30000000000000004,1,0
0,1,0,27679,3.794921875,0.166015625,7,0,4,29,11,821.923645019531,245.870956420898,0,1,faces,male,0,1,objects,A,big,VS,O,124,E09,516.705078125,1.0,0.5,0.0,0.5,1,0
0,1,0,27732,0.498046875,0.20703125,2,1,1,1,2,604.7802734375,190.270629882812,0,1,objects,small,0,1,objects,A,big,EX,O,127,E09,529.302734375,0.0,0.0,-0.5,-0.5,0,1
0,1,0,27733,0.736328125,0.4140625,3,1,4,11,3,645.608032226562,224.62483215332,0,1,faces,male,0,1,objects,A,big,EX,O,127,E09,529.302734375,0.3333333333333333,0.1,-0.4,-0.16666666666666669,0,1
0,1,0,27734,1.234375,0.2578125,4,1,3,10,4,658.624450683594,120.434440612793,0,1,faces,female,0,1,objects,A,big,EX,O,127,E09,529.302734375,0.6666666666666666,0.2,-0.3,0.16666666666666663,0,1
0,1,1,27737,2.052734375,0.150390625,5,0,14,76,7,1349.57312011719,441.247863769531,0,1,faces,male,0,1,objects,A,big,EX,O,127,E09,529.302734375,1.0,0.3,-0.2,0.5,0,1
1,1,0,27776,0.58984375,0.2421875,2,1,6,25,3,737.17236328125,737.376525878906,0,1,faces,female,0,1,faces,A,male,VS,F,129,E09,537.701171875,0.0,0.0,-0.5,-0.5,1,0
0,1,0,27777,0.919921875,0.20703125,3,1,1,4,4,529.089416503906,474.076141357422,0,1,faces,male,0,1,faces,A,male,VS,F,129,E09,537.701171875,0.14285714285714285,0.1,-0.4,-0.35714285714285715,1,0
0,1,0,27778,1.197265625,0.564453125,4,1,7,27,5,735.086059570312,961.210632324219,0,1,faces,female,0,1,faces,A,male,VS,F,129,E09,537.701171875,0.2857142857142857,0.2,-0.3,-0.2142857142857143,1,0
0,1,0,27780,1.97265625,0.208984375,5,0,11,45,7,948.800170898438,978.758117675781,0,1,faces,male,0,1,faces,A,male,VS,F,129,E09,537.701171875,0.42857142857142855,0.3,-0.2,-0.07142857142857145,1,0
0,1,0,27783,2.900390625,0.177734375,7,0,10,37,10,982.400390625,169.085556030273,0,1,faces,male,0,1,faces,A,male,VS,F,129,E09,537.701171875,0.7142857142857143,0.5,0.0,0.2142857142857143,1,0
0,1,0,27784,3.150390625,0.197265625,8,0,14,64,11,1286.00305175781,160.099838256836,0,1,faces,male,0,1,faces,A,male,VS,F,129,E09,537.701171875,0.8571428571428571,0.6,0.09999999999999998,0.3571428571428571,1,0
0,1,1,27785,3.423828125,0.17578125,9,0,5,21,12,797.177856445312,328.356750488281,0,1,faces,female,0,1,faces,A,male,VS,F,129,E09,537.701171875,1.0,0.7,0.19999999999999996,0.5,1,0
1,1,0,27872,0.671875,0.154296875,2,1,2,6,3,525.665771484375,637.664672851562,0,1,faces,female,0,1,faces,A,male,EX,F,133,E09,554.498046875,0.0,0.0,-0.5,-0.5,0,1
1,1,1,27873,0.890625,0.1484375,3,1,8,32,4,847.06005859375,574.843566894531,0,1,faces,female,0,1,faces,A,male,EX,F,133,E09,554.498046875,0.25,0.1,-0.4,-0.25,0,1
0,1,1,27875,1.30859375,0.154296875,4,1,4,11,6,669.900634765625,257.794982910156,0,1,faces,female,0,1,faces,A,male,EX,F,133,E09,554.498046875,0.5,0.2,-0.3,0.0,0,1
0,1,0,27877,1.841796875,0.21484375,5,0,6,19,8,740.658386230469,149.44108581543,0,1,faces,male,0,1,faces,A,male,EX,F,133,E09,554.498046875,0.75,0.3,-0.2,0.25,0,1
0,1,1,27880,2.62890625,0.279296875,6,0,10,55,11,1183.98095703125,129.594421386719,0,1,faces,male,0,1,faces,A,male,EX,F,133,E09,554.498046875,1.0,0.4,-0.09999999999999998,0.5,0,1
0,1,0,27903,0.791015625,0.12890625,2,1,4,11,4,632.784606933594,194.221633911133,0,1,faces,female,0,1,objects,A,small,VS,O,134,E09,558.697265625,0.0,0.0,-0.5,-0.5,1,0
0,1,0,27904,0.955078125,0.306640625,3,1,1,1,5,558.9814453125,145.547897338867,0,1,faces,female,0,1,objects,A,small,VS,O,134,E09,558.697265625,0.14285714285714285,0.1,-0.4,-0.35714285714285715,1,0
1,1,0,27906,1.63671875,0.203125,4,1,8,41,7,918.389038085938,543.369873046875,0,1,objects,small,0,1,objects,A,small,VS,O,134,E09,558.697265625,0.2857142857142857,0.2,-0.3,-0.2142857142857143,1,0
0,1,0,27907,1.884765625,0.15625,5,0,6,22,8,758.078918457031,447.203948974609,0,1,faces,male,0,1,objects,A,small,VS,O,134,E09,558.697265625,0.42857142857142855,0.3,-0.2,-0.07142857142857145,1,0
0,1,0,27908,2.095703125,0.267578125,6,0,3,6,9,519.852844238281,617.292602539062,0,1,faces,female,0,1,objects,A,small,VS,O,134,E09,558.697265625,0.5714285714285714,0.4,-0.09999999999999998,0.0714285714285714,1,0
0,1,0,27909,2.3984375,0.16796875,7,0,2,5,10,536.5791015625,545.849487304688,0,1,objects,small,0,1,objects,A,small,VS,O,134,E09,558.697265625,0.7142857142857143,0.5,0.0,0.2142857142857143,1,0
0,1,1,27913,3.390625,0.193359375,9,0,14,71,14,1285.12341308594,873.571838378906,0,1,objects,small,0,1,objects,A,small,VS,O,134,E09,558.697265625,1.0,0.7,0.19999999999999996,0.5,1,0
0,1,1,27965,0.845703125,0.1953125,2,1,3,18,2,614.016723632812,917.205139160156,0,1,faces,female,0,1,faces,A,female,VS,F,137,E09,571.294921875,0.0,0.0,-0.5,-0.5,1,0
0,1,0,27967,1.328125,0.23046875,3,1,1,8,4,515.000915527344,846.187255859375,0,1,objects,big,0,1,faces,A,female,VS,F,137,E09,571.294921875,0.1111111111111111,0.1,-0.4,-0.3888888888888889,1,0
0,1,0,27968,1.607421875,0.181640625,4,1,7,25,5,758.980407714844,745.9189453125,0,1,objects,small,0,1,faces,A,female,VS,F,137,E09,571.294921875,0.2222222222222222,0.2,-0.3,-0.2777777777777778,1,0
0,1,0,27969,1.8125,0.23046875,5,0,6,24,6,742.774780273438,664.790100097656,0,1,faces,female,0,1,faces,A,female,VS,F,137,E09,571.294921875,0.3333333333333333,0.3,-0.2,-0.16666666666666669,1,0
0,1,0,27970,2.125,0.255859375,6,0,14,71,7,1258.88244628906,857.068420410156,0,1,faces,female,0,1,faces,A,female,VS,F,137,E09,571.294921875,0.4444444444444444,0.4,-0.09999999999999998,-0.05555555555555558,1,0
0,1,0,27972,2.59375,0.25,7,0,11,43,9,963.362060546875,767.882629394531,0,1,faces,female,0,1,faces,A,female,VS,F,137,E09,571.294921875,0.5555555555555556,0.5,0.0,0.05555555555555558,1,0
0,1,0,27975,3.29296875,0.1796875,9,0,10,40,12,986.698181152344,454.246673583984,0,1,faces,female,0,1,faces,A,female,VS,F,137,E09,571.294921875,0.7777777777777778,0.7,0.19999999999999996,0.2777777777777778,1,0
0,1,0,27976,3.5390625,0.212890625,10,0,13,67,13,1217.49719238281,457.925964355469,0,1,faces,male,0,1,faces,A,female,VS,F,137,E09,571.294921875,0.8888888888888888,0.8,0.30000000000000004,0.38888888888888884,1,0
0,1,0,27977,3.859375,0.1953125,11,0,8,29,14,814.283508300781,217.923461914062,0,1,objects,small,0,1,faces,A,female,VS,F,137,E09,571.294921875,1.0,0.9,0.4,0.5,1,0
0,1,1,27996,1.9453125,0.228515625,2,1,12,66,7,1273.9189453125,326.094512939453,0,1,faces,female,0,1,faces,A,female,EX,I,138,E09,575.494140625,0.0,0.0,-0.5,-0.5,0,1
0,1,1,27998,2.416015625,0.208984375,3,1,10,58,9,1152.41552734375,476.544982910156,0,1,faces,male,0,1,faces,A,female,EX,I,138,E09,575.494140625,0.3333333333333333,0.1,-0.4,-0.16666666666666669,0,1
0,1,1,28000,2.744140625,0.3125,4,1,3,14,11,656.032653808594,567.632934570312,0,1,objects,big,0,1,faces,A,female,EX,I,138,E09,575.494140625,0.6666666666666666,0.2,-0.3,0.16666666666666663,0,1
0,1,0,28002,3.181640625,0.4375,5,0,6,33,13,835.575988769531,642.08251953125,0,1,faces,female,0,1,faces,A,female,EX,I,138,E09,575.494140625,1.0,0.3,-0.2,0.5,0,1
0,1,1,28017,0.748046875,0.193359375,2,1,1,2,4,541.930969238281,216.655502319336,0,1,faces,female,0,1,objects,A,small,EX,O,139,E09,579.693359375,0.0,0.0,-0.5,-0.5,0,1
0,1,1,28019,1.380859375,0.212890625,3,1,7,47,6,1061.43005371094,233.810821533203,0,1,faces,female,0,1,objects,A,small,EX,O,139,E09,579.693359375,0.16666666666666666,0.1,-0.4,-0.33333333333333337,0,1
0,1,0,28021,1.8515625,0.21484375,4,1,12,65,8,1243.39392089844,258.408111572266,0,1,faces,female,0,1,objects,A,small,EX,O,139,E09,579.693359375,0.3333333333333333,0.2,-0.3,-0.16666666666666669,0,1
0,1,0,28022,2.09375,0.390625,5,0,13,66,9,1258.25854492188,346.834136962891,0,1,faces,male,0,1,objects,A,small,EX,O,139,E09,579.693359375,0.5,0.3,-0.2,0.0,0,1
0,1,1,28023,2.619140625,0.13671875,6,0,2,7,10,571.090209960938,717.689819335938,0,1,objects,big,0,1,objects,A,small,EX,O,139,E09,579.693359375,0.6666666666666666,0.4,-0.09999999999999998,0.16666666666666663,0,1
0,1,1,28027,3.65234375,0.177734375,8,0,8,54,14,1040.73022460938,979.618041992188,0,1,faces,male,0,1,objects,A,small,EX,O,139,E09,579.693359375,1.0,0.6,0.09999999999999998,0.5,0,1
0,1,0,28096,0.986328125,0.208984375,2,1,1,1,6,527.486206054688,97.8707733154297,0,1,faces,male,0,1,faces,A,male,VS,I,142,E09,592.291015625,0.0,0.0,-0.5,-0.5,1,0
0,1,0,28099,1.70703125,0.1484375,3,1,14,65,9,1266.29650878906,229.525802612305,0,1,faces,female,0,1,faces,A,male,VS,I,142,E09,592.291015625,0.14285714285714285,0.1,-0.4,-0.35714285714285715,1,0
0,1,0,28100,1.91015625,0.234375,4,1,7,39,10,982.874328613281,355.374328613281,0,1,objects,big,0,1,faces,A,male,VS,I,142,E09,592.291015625,0.2857142857142857,0.2,-0.3,-0.2142857142857143,1,0
0,1,0,28101,2.20703125,0.18359375,5,0,11,58,11,1161.77355957031,428.480499267578,0,1,faces,male,0,1,faces,A,male,VS,I,142,E09,592.291015625,0.42857142857142855,0.3,-0.2,-0.07142857142857145,1,0
0,1,0,28103,2.625,0.19140625,6,0,12,62,13,1162.5966796875,889.628967285156,0,1,faces,male,0,1,faces,A,male,VS,I,142,E09,592.291015625,0.5714285714285714,0.4,-0.09999999999999998,0.0714285714285714,1,0
0,1,0,28104,2.90234375,0.173828125,7,0,8,45,14,949.403381347656,952.3203125,0,1,faces,male,0,1,faces,A,male,VS,I,142,E09,592.291015625,0.7142857142857143,0.5,0.0,0.2142857142857143,1,0
0,1,0,28105,3.125,0.244140625,8,0,4,26,15,730.060119628906,821.616638183594,0,1,objects,big,0,1,faces,A,male,VS,I,142,E09,592.291015625,0.8571428571428571,0.6,0.09999999999999998,0.3571428571428571,1,0
0,1,0,28106,3.421875,0.1953125,9,0,2,15,16,647.352600097656,621.239501953125,0,1,faces,female,0,1,faces,A,male,VS,I,142,E09,592.291015625,1.0,0.7,0.19999999999999996,0.5,1,0
0,1,0,28335,0.6328125,0.166015625,2,1,1,6,2,580.713073730469,673.080444335938,0,1,faces,female,0,1,faces,A,female,VS,F,145,E09,604.888671875,0.0,0.0,-0.5,-0.5,1,0
0,1,0,28336,0.8359375,0.21484375,3,1,2,16,3,618.537170410156,759.108032226562,0,1,faces,male,0,1,faces,A,female,VS,F,145,E09,604.888671875,0.125,0.1,-0.4,-0.375,1,0
0,1,0,28337,1.08984375,0.16796875,4,1,3,17,4,618.862670898438,867.340759277344,0,1,faces,male,0,1,faces,A,female,VS,F,145,E09,604.888671875,0.25,0.2,-0.3,-0.25,1,0
0,1,0,28338,1.333984375,0.28125,5,0,6,45,5,985.634887695312,954.2939453125,0,1,faces,male,0,1,faces,A,female,VS,F,145,E09,604.888671875,0.375,0.3,-0.2,-0.125,1,0
0,1,1,28340,1.916015625,0.115234375,6,0,7,50,7,1100.07922363281,557.422607421875,0,1,faces,female,0,1,faces,A,female,VS,F,145,E09,604.888671875,0.5,0.4,-0.09999999999999998,0.0,1,0
0,1,0,28342,2.36328125,0.21875,7,0,15,77,9,1364.60339355469,538.845642089844,0,1,faces,male,0,1,faces,A,female,VS,F,145,E09,604.888671875,0.625,0.5,0.0,0.125,1,0
0,1,1,28343,2.6640625,0.18359375,8,0,14,75,10,1381.15234375,298.053924560547,0,1,objects,small,0,1,faces,A,female,VS,F,145,E09,604.888671875,0.75,0.6,0.09999999999999998,0.25,1,0
0,1,1,28345,2.978515625,0.166015625,9,0,10,64,12,1266.29565429688,96.8258743286133,0,1,faces,female,0,1,faces,A,female,VS,F,145,E09,604.888671875,0.875,0.7,0.19999999999999996,0.375,1,0
0,1,0,28347,3.388671875,0.244140625,10,0,4,19,14,743.114501953125,137.072418212891,0,1,objects,small,0,1,faces,A,female,VS,F,145,E09,604.888671875,1.0,0.8,0.30000000000000004,0.5,1,0
0,1,0,28362,0.728515625,0.10546875,2,1,9,61,4,1156.03173828125,737.352844238281,0,1,objects,big,0,1,objects,A,small,VS,O,146,E09,609.087890625,0.0,0.0,-0.5,-0.5,1,0
0,1,0,28364,1.056640625,0.11328125,3,1,1,18,6,611.165954589844,938.898193359375,0,1,faces,female,0,1,objects,A,small,VS,O,146,E09,609.087890625,0.2,0.1,-0.4,-0.3,1,0
0,1,0,28366,1.494140625,0.2109375,4,1,10,67,8,1299.22082519531,450.147216796875,0,1,faces,female,0,1,objects,A,small,VS,O,146,E09,609.087890625,0.4,0.2,-0.3,-0.09999999999999998,1,0
0,1,0,28367,1.748046875,0.11328125,5,0,13,75,9,1376.37145996094,345.890014648438,0,1,objects,small,0,1,objects,A,small,VS,O,146,E09,609.087890625,0.6,0.3,-0.2,0.09999999999999998,1,0
0,1,0,28369,2.20703125,0.146484375,6,0,5,37,11,946.335083007812,165.595565795898,0,1,objects,small,0,1,objects,A,small,VS,O,146,E09,609.087890625,0.8,0.4,-0.09999999999999998,0.30000000000000004,1,0
0,1,0,28371,2.62109375,0.15625,7,0,7,42,13,968.286499023438,644.607727050781,0,1,faces,female,0,1,objects,A,small,VS,O,146,E09,609.087890625,1.0,0.5,0.0,0.5,1,0
0,1,0,28518,0.62109375,0.265625,2,1,3,9,3,594.536010742188,910.295654296875,0,1,faces,male,0,1,faces,A,male,EX,F,153,E09,638.482421875,0.0,0.0,-0.5,-0.5,0,1
