refix,pretarget,multifix,urevent,tonset,dur_added,rank,first_rank,stposrel,stposabs,n,x,y,istarget,isdistractor,distractor_cat,ditractor_atr,trial_targetseen,trial_correct,trial_cat,trial_resp,trial_atr,trial_type,trial_cattype,trial_number,trial_subject,trial_bgn_latency,Nrank,N_subj_rank,NC_subj_rank,NC_rank,TS,VSNT_EX,isEX
0,1,0,26549,0.966796875,0.349609375,2,1,3,13,3,644.395690917969,424.436370849609,0,1,faces,female,0,1,faces,A,female,EX,I,6,J04,21.197265625,0.0,0.0,-0.5,-0.5,0.0,0.0,1.0
0,1,0,26550,1.328125,0.28125,3,1,2,12,4,660.0380859375,342.228302001953,0,1,faces,female,0,1,faces,A,female,EX,I,6,J04,21.197265625,0.2,0.125,-0.375,-0.3,0.0,0.0,1.0
0,1,0,26552,1.818359375,0.337890625,4,1,11,52,6,1062.7666015625,770.521118164062,0,1,faces,female,0,1,faces,A,female,EX,I,6,J04,21.197265625,0.4,0.25,-0.25,-0.09999999999999998,0.0,0.0,1.0
0,1,0,26554,2.33203125,0.48046875,5,0,9,36,8,852.362121582031,917.263244628906,0,1,objects,big,0,1,faces,A,female,EX,I,6,J04,21.197265625,0.6,0.375,-0.125,0.09999999999999998,0.0,0.0,1.0
0,1,0,26555,2.826171875,0.5546875,6,0,7,26,9,745.700256347656,797.430908203125,0,1,faces,male,0,1,faces,A,female,EX,I,6,J04,21.197265625,0.8,0.5,0.0,0.30000000000000004,0.0,0.0,1.0
0,1,0,26556,3.42578125,0.140625,7,0,14,69,10,1288.99365234375,687.954162597656,0,1,faces,male,0,1,faces,A,female,EX,I,6,J04,21.197265625,1.0,0.625,0.125,0.5,0.0,0.0,1.0
0,1,0,26606,0.5390625,0.154296875,2,1,5,22,3,750.587768554688,402.240081787109,0,1,faces,male,1,1,faces,P,female,VS,I,9,J04,33.794921875,0.0,0.0,-0.5,-0.5,1.0,1.0,0.0
0,1,1,26607,0.72265625,0.166015625,3,1,2,10,4,631.948791503906,157.901214599609,0,1,objects,small,1,1,faces,P,female,VS,I,9,J04,33.794921875,0.14285714285714285,0.125,-0.375,-0.35714285714285715,1.0,1.0,0.0
0,1,0,26609,1.09765625,0.150390625,4,1,13,66,6,1250.33618164062,322.36865234375,0,1,objects,small,1,1,faces,P,female,VS,I,9,J04,33.794921875,0.2857142857142857,0.25,-0.25,-0.2142857142857143,1.0,1.0,0.0
1,1,0,26611,1.435546875,0.154296875,5,0,1,8,8,593.251831054688,792.654968261719,0,1,faces,female,1,1,faces,P,female,VS,I,9,J04,33.794921875,0.42857142857142855,0.375,-0.125,-0.07142857142857145,1.0,1.0,0.0
0,1,1,26612,1.625,0.16015625,6,0,7,34,9,907.591674804688,715.251647949219,0,1,faces,female,1,1,faces,P,female,VS,I,9,J04,33.794921875,0.5714285714285714,0.5,0.0,0.0714285714285714,1.0,1.0,0.0
0,1,0,26742,0.85546875,0.134765625,3,1,1,3,5,554.853515625,331.941589355469,0,1,faces,female,1,1,faces,P,female,VS,F,15,J04,58.990234375,0.0,0.125,-0.375,-0.5,1.0,1.0,0.0
0,1,0,26758,0.353515625,0.25,2,1,2,22,2,712.396484375,436.486999511719,0,1,objects,big,1,1,objects,P,small,VS,O,16,J04,63.189453125,0.0,0.0,-0.5,-0.5,1.0,1.0,0.0
0,1,0,26761,1.00390625,0.232421875,4,1,13,56,5,1160.42077636719,237.20393371582,0,1,faces,female,1,1,objects,P,small,VS,O,16,J04,63.189453125,0.4,0.25,-0.25,-0.09999999999999998,1.0,1.0,0.0
0,1,0,26763,1.4453125,0.14453125,5,0,7,43,7,935.016235351562,787.525939941406,0,1,faces,male,1,1,objects,P,small,VS,O,16,J04,63.189453125,0.6,0.375,-0.125,0.09999999999999998,1.0,1.0,0.0
0,1,0,26796,0.5,0.22265625,2,1,1,2,3,585.359497070312,260.051544189453,0,1,objects,small,1,1,objects,P,small,VS,O,18,J04,71.587890625,0.0,0.0,-0.5,-0.5,1.0,1.0,0.0
0,1,0,26797,0.763671875,0.291015625,3,1,3,9,4,536.171875,966.695556640625,0,1,faces,female,1,1,objects,P,small,VS,O,18,J04,71.587890625,0.2,0.125,-0.375,-0.3,1.0,1.0,0.0
0,1,0,26798,1.07421875,0.138671875,4,1,5,26,5,739.838806152344,832.458557128906,0,1,objects,big,1,1,objects,P,small,VS,O,18,J04,71.587890625,0.4,0.25,-0.25,-0.09999999999999998,1.0,1.0,0.0
0,1,0,26909,0.44921875,0.228515625,2,1,1,11,2,687.328918457031,232.669799804688,0,1,faces,female,1,1,faces,P,male,VS,I,24,J04,96.783203125,0.0,0.0,-0.5,-0.5,1.0,1.0,0.0
0,1,0,26911,0.875,0.166015625,3,1,9,47,4,1073.29626464844,205.828094482422,0,1,faces,female,1,1,faces,P,male,VS,I,24,J04,96.783203125,0.3333333333333333,0.125,-0.375,-0.16666666666666669,1.0,1.0,0.0
0,1,0,26912,1.072265625,0.2890625,4,1,2,19,5,750.45166015625,124.297798156738,0,1,faces,female,1,1,faces,P,male,VS,I,24,J04,96.783203125,0.6666666666666666,0.25,-0.25,0.16666666666666663,1.0,1.0,0.0
0,1,0,26914,1.546875,0.349609375,5,0,3,25,7,762.483520507812,703.116882324219,0,1,faces,male,1,1,faces,P,male,VS,I,24,J04,96.783203125,1.0,0.375,-0.125,0.5,1.0,1.0,0.0
0,1,0,26922,0.998046875,0.365234375,2,1,1,6,5,556.401916503906,666.361938476562,0,1,faces,male,0,1,faces,A,male,EX,I,25,J04,100.982421875,0.0,0.0,-0.5,-0.5,0.0,0.0,1.0
0,1,0,26923,1.40234375,0.146484375,3,1,7,39,6,950.006896972656,331.984497070312,0,1,faces,male,0,1,faces,A,male,EX,I,25,J04,100.982421875,1.0,0.125,-0.375,0.5,0.0,0.0,1.0
0,1,0,26938,1.388671875,0.16015625,2,1,10,71,5,1241.17016601562,874.418090820312,0,1,faces,male,1,1,objects,P,small,VS,O,26,J04,105.181640625,0.0,0.0,-0.5,-0.5,1.0,1.0,0.0
0,1,0,26939,1.560546875,0.14453125,3,1,14,80,6,1316.9677734375,876.3740234375,0,1,faces,female,1,1,objects,P,small,VS,O,26,J04,105.181640625,1.0,0.125,-0.375,0.5,1.0,1.0,0.0
0,1,0,27196,0.650390625,0.66796875,2,1,1,9,2,545.830505371094,954.854614257812,0,1,faces,female,0,1,faces,A,female,EX,I,38,J04,155.572265625,0.0,0.0,-0.5,-0.5,0.0,0.0,1.0
0,1,0,27197,1.373046875,0.27734375,3,1,11,53,3,1021.85430908203,833.782287597656,0,1,faces,female,0,1,faces,A,female,EX,I,38,J04,155.572265625,0.2,0.125,-0.375,-0.3,0.0,0.0,1.0
0,1,0,27198,1.66796875,0.212890625,4,1,10,51,4,1081.87768554688,675.537841796875,0,1,objects,small,0,1,faces,A,female,EX,I,38,J04,155.572265625,0.4,0.25,-0.25,-0.09999999999999998,0.0,0.0,1.0
0,1,0,27200,2.142578125,0.20703125,5,0,14,78,6,1352.60107421875,600.391174316406,0,1,faces,female,0,1,faces,A,female,EX,I,38,J04,155.572265625,0.6,0.375,-0.125,0.09999999999999998,0.0,0.0,1.0
0,1,0,27201,2.369140625,0.41796875,6,0,15,79,7,1371.22143554688,730.211303710938,0,1,faces,female,0,1,faces,A,female,EX,I,38,J04,155.572265625,0.8,0.5,0.0,0.30000000000000004,0.0,0.0,1.0
0,1,0,27205,3.5390625,0.232421875,7,0,7,30,11,840.959167480469,311.249145507812,0,1,faces,male,0,1,faces,A,female,EX,I,38,J04,155.572265625,1.0,0.625,0.125,0.5,0.0,0.0,1.0
0,1,0,27320,2.724609375,0.212890625,2,1,12,39,8,991.621276855469,324.642883300781,0,1,faces,female,0,1,faces,A,female,EX,F,44,J04,180.767578125,0.0,0.0,-0.5,-0.5,0.0,0.0,1.0
0,1,0,27322,3.19921875,0.279296875,3,1,3,11,10,646.231079101562,221.526123046875,0,1,faces,male,0,1,faces,A,female,EX,F,44,J04,180.767578125,0.5,0.125,-0.375,0.0,0.0,0.0,1.0
0,1,0,27324,3.982421875,0.20703125,4,1,14,68,12,1300.57470703125,544.365661621094,0,1,faces,male,0,1,faces,A,female,EX,F,44,J04,180.767578125,1.0,0.25,-0.25,0.5,0.0,0.0,1.0
0,1,0,27410,1.501953125,0.197265625,2,1,2,10,5,670.588195800781,174.47673034668,0,1,faces,male,0,1,faces,A,male,EX,I,49,J04,201.763671875,0.0,0.0,-0.5,-0.5,0.0,0.0,1.0
0,1,1,27412,1.958984375,0.201171875,3,1,11,59,7,1189.70568847656,507.677032470703,0,1,faces,male,0,1,faces,A,male,EX,I,49,J04,201.763671875,0.3333333333333333,0.125,-0.375,-0.16666666666666669,0.0,0.0,1.0
0,1,0,27414,2.787109375,0.169921875,4,1,15,79,9,1310.33801269531,734.040832519531,0,1,objects,small,0,1,faces,A,male,EX,I,49,J04,201.763671875,0.6666666666666666,0.25,-0.25,0.16666666666666663,0.0,0.0,1.0
0,1,0,27416,3.30859375,0.26953125,5,0,14,76,11,1386.64721679688,421.672149658203,0,1,faces,male,0,1,faces,A,male,EX,I,49,J04,201.763671875,1.0,0.375,-0.125,0.5,0.0,0.0,1.0
0,1,0,27455,2.205078125,0.357421875,2,1,15,81,9,1386.63269042969,930.693237304688,0,1,faces,male,0,1,faces,A,male,EX,F,51,J04,210.162109375,0.0,0.0,-0.5,-0.5,0.0,0.0,1.0
0,1,0,27456,2.576171875,0.423828125,3,1,12,71,10,1275.67919921875,844.008178710938,0,1,faces,male,0,1,faces,A,male,EX,F,51,J04,210.162109375,0.25,0.125,-0.375,-0.25,0.0,0.0,1.0
0,1,0,27457,3.03515625,0.375,4,1,9,59,11,1169.31872558594,506.7109375,0,1,faces,male,0,1,faces,A,male,EX,F,51,J04,210.162109375,0.5,0.25,-0.25,0.0,0.0,0.0,1.0
0,1,0,27458,3.42578125,0.400390625,5,0,11,66,12,1259.80493164062,362.124969482422,0,1,objects,small,0,1,faces,A,male,EX,F,51,J04,210.162109375,0.75,0.375,-0.125,0.25,0.0,0.0,1.0
0,1,0,27459,3.859375,0.83203125,6,0,7,39,13,974.897521972656,344.492004394531,0,1,faces,female,0,1,faces,A,male,EX,F,51,J04,210.162109375,1.0,0.5,0.0,0.5,0.0,0.0,1.0
0,1,0,27488,0.677734375,0.177734375,2,1,2,12,3,621.17919921875,309.098083496094,0,1,faces,female,0,1,faces,A,female,EX,I,53,J04,218.560546875,0.0,0.0,-0.5,-0.5,0.0,0.0,1.0
0,1,0,27491,1.30859375,0.44140625,3,1,13,74,6,1377.43505859375,276.139617919922,0,1,faces,female,0,1,faces,A,female,EX,I,53,J04,218.560546875,0.2,0.125,-0.375,-0.3,0.0,0.0,1.0
0,1,0,27492,1.80859375,0.41015625,4,1,3,31,7,855.521423339844,456.001312255859,0,1,faces,male,0,1,faces,A,female,EX,I,53,J04,218.560546875,0.4,0.25,-0.25,-0.09999999999999998,0.0,0.0,1.0
0,1,0,27494,2.44140625,0.43359375,5,0,10,69,9,1266.54907226562,674.949096679688,0,1,faces,female,0,1,faces,A,female,EX,I,53,J04,218.560546875,0.6,0.375,-0.125,0.09999999999999998,0.0,0.0,1.0
0,1,1,27496,2.9921875,0.23828125,6,0,12,72,11,1289.13623046875,941.556274414062,0,1,faces,male,0,1,faces,A,female,EX,I,53,J04,218.560546875,0.8,0.5,0.0,0.30000000000000004,0.0,0.0,1.0
0,1,0,27499,3.650390625,0.37109375,7,0,15,81,14,1378.67565917969,908.085266113281,0,1,objects,big,0,1,faces,A,female,EX,I,53,J04,218.560546875,1.0,0.625,0.125,0.5,0.0,0.0,1.0
0,1,0,27505,1.55859375,0.205078125,2,1,15,78,3,1394.69946289062,675.712890625,0,1,faces,male,0,1,faces,A,female,EX,F,54,J04,222.759765625,0.0,0.0,-0.5,-0.5,0.0,0.0,1.0
0,1,0,27508,2.19921875,0.431640625,3,1,11,63,6,1183.79089355469,965.499450683594,0,1,objects,small,0,1,faces,A,female,EX,F,54,J04,222.759765625,0.5,0.125,-0.375,0.0,0.0,0.0,1.0
0,1,0,27511,3.263671875,0.6171875,4,1,1,14,9,641.090087890625,585.666931152344,0,1,faces,female,0,1,faces,A,female,EX,F,54,J04,222.759765625,1.0,0.25,-0.25,0.5,0.0,0.0,1.0
0,1,0,28077,0.396484375,0.146484375,2,1,4,15,2,649.030944824219,618.083435058594,0,1,objects,small,1,1,faces,P,male,VS,I,72,J04,298.345703125,0.0,0.0,-0.5,-0.5,1.0,1.0,0.0
0,1,0,28078,0.568359375,0.181640625,3,1,6,25,3,729.080383300781,694.658996582031,0,1,faces,male,1,1,faces,P,male,VS,I,72,J04,298.345703125,0.25,0.125,-0.375,-0.25,1.0,1.0,0.0
0,1,0,28079,0.79296875,0.380859375,4,1,2,11,4,651.99072265625,261.379547119141,0,1,faces,female,1,1,faces,P,male,VS,I,72,J04,298.345703125,0.5,0.25,-0.25,0.0,1.0,1.0,0.0
0,1,0,28083,2.705078125,0.275390625,5,0,14,79,8,1353.19055175781,743.47900390625,0,1,faces,female,1,1,faces,P,male,VS,I,72,J04,298.345703125,0.75,0.375,-0.125,0.25,1.0,1.0,0.0
0,1,0,28084,3.0,0.318359375,6,0,10,61,9,1153.24047851562,734.742736816406,0,1,faces,female,1,1,faces,P,male,VS,I,72,J04,298.345703125,1.0,0.5,0.0,0.5,1.0,1.0,0.0
0,1,0,28094,0.541015625,0.66015625,2,1,6,32,3,870.632141113281,507.809265136719,0,1,objects,small,0,1,objects,A,big,EX,O,73,J04,302.544921875,0.0,0.0,-0.5,-0.5,0.0,0.0,1.0
1,1,0,28096,1.375,0.24609375,3,1,3,6,5,554.097106933594,629.232727050781,0,1,objects,big,0,1,objects,A,big,EX,O,73,J04,302.544921875,0.125,0.125,-0.375,-0.375,0.0,0.0,1.0
0,1,0,28097,1.640625,0.29296875,4,1,2,4,6,591.56494140625,391.671813964844,0,1,faces,male,0,1,objects,A,big,EX,O,73,J04,302.544921875,0.25,0.25,-0.25,-0.25,0.0,0.0,1.0
0,1,0,28100,2.515625,0.2265625,6,0,5,30,9,908.959167480469,328.095062255859,0,1,objects,big,0,1,objects,A,big,EX,O,73,J04,302.544921875,0.5,0.5,0.0,0.0,0.0,0.0,1.0
0,1,1,28101,2.791015625,0.224609375,7,0,14,70,10,1277.59509277344,777.00537109375,0,1,faces,female,0,1,objects,A,big,EX,O,73,J04,302.544921875,0.625,0.625,0.125,0.125,0.0,0.0,1.0
0,1,0,28103,3.197265625,0.21484375,8,0,12,61,12,1140.25354003906,738.648742675781,0,1,faces,female,0,1,objects,A,big,EX,O,73,J04,302.544921875,0.75,0.75,0.25,0.25,0.0,0.0,1.0
0,1,0,28104,3.427734375,0.171875,9,0,13,69,13,1256.68530273438,628.137390136719,0,1,objects,small,0,1,objects,A,big,EX,O,73,J04,302.544921875,0.875,0.875,0.375,0.375,0.0,0.0,1.0
0,1,0,28105,3.62109375,0.685546875,10,0,9,49,14,1033.13806152344,482.593139648438,0,1,faces,female,0,1,objects,A,big,EX,O,73,J04,302.544921875,1.0,1.0,0.5,0.5,0.0,0.0,1.0
0,1,0,28485,2.162109375,0.240234375,2,1,11,70,5,1262.38940429688,702.52783203125,0,1,faces,female,0,1,faces,A,female,EX,F,104,J04,432.720703125,0.0,0.0,-0.5,-0.5,0.0,0.0,1.0
0,1,0,28489,3.392578125,0.2265625,3,1,14,80,9,1341.90771484375,868.45263671875,0,1,faces,female,0,1,faces,A,female,EX,F,104,J04,432.720703125,0.5,0.125,-0.375,0.0,0.0,0.0,1.0
0,1,0,28490,3.626953125,0.353515625,4,1,15,81,10,1399.0419921875,890.964111328125,0,1,faces,male,0,1,faces,A,female,EX,F,104,J04,432.720703125,1.0,0.25,-0.25,0.5,0.0,0.0,1.0
0,1,0,28517,1.044921875,0.228515625,2,1,9,59,3,1201.17053222656,510.671325683594,0,1,faces,female,0,1,faces,A,male,EX,I,106,J04,441.119140625,0.0,0.0,-0.5,-0.5,0.0,0.0,1.0
0,1,0,28518,1.291015625,0.22265625,3,1,13,76,4,1372.12915039062,425.112182617188,0,1,faces,male,0,1,faces,A,male,EX,I,106,J04,441.119140625,0.3333333333333333,0.125,-0.375,-0.16666666666666669,0.0,0.0,1.0
0,1,0,28522,2.423828125,0.220703125,4,1,10,62,8,1183.15808105469,821.659301757812,0,1,objects,small,0,1,faces,A,male,EX,I,106,J04,441.119140625,0.6666666666666666,0.25,-0.25,0.16666666666666663,0.0,0.0,1.0
0,1,0,28524,3.849609375,0.96484375,5,0,8,58,10,1127.638671875,481.276184082031,0,1,faces,female,0,1,faces,A,male,EX,I,106,J04,441.119140625,1.0,0.375,-0.125,0.5,0.0,0.0,1.0
0,1,0,28699,1.13671875,0.23046875,2,1,13,64,6,1265.78100585938,132.184036254883,0,1,faces,male,0,1,faces,A,male,EX,F,116,J04,483.111328125,0.0,0.0,-0.5,-0.5,0.0,0.0,1.0
0,1,0,28703,2.1953125,0.291015625,3,1,10,58,10,1158.70971679688,417.668060302734,0,1,faces,male,0,1,faces,A,male,EX,F,116,J04,483.111328125,0.3333333333333333,0.125,-0.375,-0.16666666666666669,0.0,0.0,1.0
0,1,0,28705,2.8515625,0.55859375,4,1,8,44,12,982.379821777344,824.090881347656,0,1,faces,female,0,1,faces,A,male,EX,F,116,J04,483.111328125,0.6666666666666666,0.25,-0.25,0.16666666666666663,0.0,0.0,1.0
0,1,1,28706,3.455078125,0.283203125,5,0,4,22,13,764.212768554688,425.213928222656,0,1,faces,female,0,1,faces,A,male,EX,F,116,J04,483.111328125,1.0,0.375,-0.125,0.5,0.0,0.0,1.0
0,1,0,28757,0.4765625,0.322265625,2,1,2,4,2,596.984985351562,400.623199462891,0,1,faces,female,1,1,faces,P,female,VS,F,119,J04,495.708984375,0.0,0.0,-0.5,-0.5,1.0,1.0,0.0
0,1,0,28758,0.837890625,0.255859375,3,1,11,43,3,938.932861328125,761.554382324219,0,1,faces,female,1,1,faces,P,female,VS,F,119,J04,495.708984375,0.5,0.125,-0.375,0.0,1.0,1.0,0.0
0,1,0,28759,1.107421875,0.240234375,4,1,10,34,4,893.422180175781,745.407165527344,0,1,faces,female,1,1,faces,P,female,VS,F,119,J04,495.708984375,1.0,0.25,-0.25,0.5,1.0,1.0,0.0
0,1,0,28819,0.681640625,0.240234375,2,1,2,12,3,661.436462402344,292.975463867188,0,1,faces,female,1,1,objects,P,small,VS,O,123,J04,512.505859375,0.0,0.0,-0.5,-0.5,1.0,1.0,0.0
0,1,0,28862,1.689453125,0.146484375,2,1,4,6,6,578.544616699219,657.976379394531,0,1,objects,small,0,1,objects,A,big,EX,O,127,J04,529.302734375,0.0,0.0,-0.5,-0.5,0.0,0.0,1.0
0,1,0,28863,2.404296875,0.62109375,3,1,10,44,7,981.618225097656,843.392028808594,0,1,faces,male,0,1,objects,A,big,EX,O,127,J04,529.302734375,0.5,0.125,-0.375,0.0,0.0,0.0,1.0
0,1,0,28864,3.26953125,0.677734375,4,1,13,77,8,1383.40686035156,515.578369140625,0,1,objects,big,0,1,objects,A,big,EX,O,127,J04,529.302734375,1.0,0.25,-0.25,0.5,0.0,0.0,1.0
0,1,0,28884,3.013671875,0.294921875,3,1,3,15,4,660.150756835938,670.652282714844,0,1,faces,female,1,1,faces,P,male,VS,I,129,J04,537.701171875,0.0,0.125,-0.375,-0.5,1.0,1.0,0.0
1,1,0,28885,3.37890625,0.208984375,4,1,14,77,5,1331.75891113281,563.279724121094,0,1,faces,female,1,1,faces,P,male,VS,I,129,J04,537.701171875,0.5,0.25,-0.25,0.0,1.0,1.0,0.0
0,1,0,28886,3.6015625,0.134765625,5,0,12,68,6,1268.85217285156,580.764770507812,0,1,faces,male,1,1,faces,P,male,VS,I,129,J04,537.701171875,1.0,0.375,-0.125,0.5,1.0,1.0,0.0
0,1,0,28911,0.953125,0.376953125,2,1,5,25,5,799.992126464844,699.057495117188,0,1,faces,male,0,1,faces,A,male,EX,F,131,J04,546.099609375,0.0,0.0,-0.5,-0.5,0.0,0.0,1.0
0,1,0,28912,1.3515625,0.240234375,3,1,2,16,6,702.208557128906,744.951232910156,0,1,faces,female,0,1,faces,A,male,EX,F,131,J04,546.099609375,0.14285714285714285,0.125,-0.375,-0.35714285714285715,0.0,0.0,1.0
0,1,0,28913,1.640625,0.185546875,4,1,11,69,7,1285.53918457031,596.891967773438,0,1,objects,small,0,1,faces,A,male,EX,F,131,J04,546.099609375,0.2857142857142857,0.25,-0.25,-0.2142857142857143,0.0,0.0,1.0
0,1,0,28914,1.833984375,0.3203125,5,0,10,68,8,1301.20336914062,584.121398925781,0,1,faces,female,0,1,faces,A,male,EX,F,131,J04,546.099609375,0.42857142857142855,0.375,-0.125,-0.07142857142857145,0.0,0.0,1.0
1,1,0,28916,2.353515625,0.181640625,6,0,9,48,10,1041.31042480469,370.118896484375,0,1,faces,female,0,1,faces,A,male,EX,F,131,J04,546.099609375,0.5714285714285714,0.5,0.0,0.0714285714285714,0.0,0.0,1.0
0,1,0,28917,2.544921875,0.3203125,7,0,6,39,11,997.445007324219,390.203796386719,0,1,faces,female,0,1,faces,A,male,EX,F,131,J04,546.099609375,0.7142857142857143,0.625,0.125,0.2142857142857143,0.0,0.0,1.0
0,1,0,28919,3.705078125,0.51953125,9,0,13,74,13,1372.62036132812,289.822906494141,0,1,faces,male,0,1,faces,A,male,EX,F,131,J04,546.099609375,1.0,0.875,0.375,0.5,0.0,0.0,1.0
0,1,1,28944,1.564453125,0.41015625,2,1,2,12,3,693.316223144531,371.008209228516,0,1,faces,female,0,1,faces,A,male,EX,I,133,J04,554.498046875,0.0,0.0,-0.5,-0.5,0.0,0.0,1.0
0,1,0,28946,3.55078125,0.50390625,3,1,8,43,5,952.777282714844,719.329711914062,0,1,faces,female,0,1,faces,A,male,EX,I,133,J04,554.498046875,1.0,0.125,-0.375,0.5,0.0,0.0,1.0
1,1,1,29008,0.55859375,0.19921875,2,1,5,32,2,882.0302734375,580.302001953125,0,1,objects,small,1,1,objects,P,small,VS,O,137,J04,571.294921875,0.0,0.0,-0.5,-0.5,1.0,1.0,0.0
0,1,1,29010,1.154296875,0.203125,3,1,13,70,4,1235.54223632812,716.344055175781,0,1,faces,male,1,1,objects,P,small,VS,O,137,J04,571.294921875,0.25,0.125,-0.375,-0.25,1.0,1.0,0.0
0,1,0,29081,1.826171875,0.380859375,2,1,12,47,7,1016.73999023438,264.586578369141,0,1,faces,male,1,1,faces,P,male,VS,F,141,J04,588.091796875,0.0,0.0,-0.5,-0.5,1.0,1.0,0.0
0,1,0,29083,2.40625,0.142578125,3,1,11,45,9,938.477722167969,893.184387207031,0,1,objects,small,1,1,faces,P,male,VS,F,141,J04,588.091796875,0.25,0.125,-0.375,-0.25,1.0,1.0,0.0
0,1,0,29084,2.55859375,0.255859375,4,1,10,44,10,925.656005859375,814.216125488281,0,1,faces,female,1,1,faces,P,male,VS,F,141,J04,588.091796875,0.5,0.25,-0.25,0.0,1.0,1.0,0.0
0,1,0,29239,0.5546875,0.3671875,2,1,2,11,3,705.304748535156,230.6328125,0,1,objects,big,1,1,faces,P,female,VS,I,143,J04,596.490234375,0.0,0.0,-0.5,-0.5,1.0,1.0,0.0
0,1,0,29240,0.9375,0.1640625,3,1,4,21,4,790.626647949219,325.276062011719,0,1,faces,female,1,1,faces,P,female,VS,I,143,J04,596.490234375,0.25,0.125,-0.375,-0.25,1.0,1.0,0.0
0,1,0,29286,0.365234375,0.197265625,2,1,6,24,2,761.0419921875,599.952026367188,0,1,faces,female,1,1,faces,P,male,VS,I,146,J04,609.087890625,0.0,0.0,-0.5,-0.5,1.0,1.0,0.0
0,1,0,29330,0.458984375,0.28515625,2,1,4,22,2,761.039123535156,393.875915527344,0,1,faces,female,0,1,objects,A,big,EX,O,149,J04,621.685546875,0.0,0.0,-0.5,-0.5,0.0,0.0,1.0
0,1,0,29331,0.78125,0.224609375,3,1,1,1,3,586.078857421875,180.385177612305,0,1,faces,male,0,1,objects,A,big,EX,O,149,J04,621.685546875,0.3333333333333333,0.125,-0.375,-0.16666666666666669,0.0,0.0,1.0
0,1,0,29332,1.013671875,0.880859375,4,1,2,3,4,595.027587890625,294.613739013672,0,1,faces,female,0,1,objects,A,big,EX,O,149,J04,621.685546875,0.6666666666666666,0.25,-0.25,0.16666666666666663,0.0,0.0,1.0
1,1,0,29336,3.11328125,0.15234375,5,0,8,41,8,939.650512695312,579.552185058594,0,1,faces,male,0,1,objects,A,big,EX,O,149,J04,621.685546875,1.0,0.375,-0.125,0.5,0.0,0.0,1.0
0,1,0,29437,1.837890625,0.197265625,2,1,7,19,4,788.165771484375,120.952369689941,0,1,faces,male,0,1,faces,A,male,EX,F,155,J04,646.880859375,0.0,0.0,-0.5,-0.5,0.0,0.0,1.0
0,1,0,29439,3.00390625,0.18359375,3,1,5,16,6,682.500244140625,729.619445800781,0,1,objects,big,0,1,faces,A,male,EX,F,155,J04,646.880859375,1.0,0.125,-0.375,0.5,0.0,0.0,1.0
0,1,0,29506,3.17578125,0.66796875,2,1,4,30,12,846.691162109375,303.373901367188,0,1,objects,big,0,1,faces,A,female,EX,I,159,J04,663.677734375,0.0,0.0,-0.5,-0.5,0.0,0.0,1.0
0,1,0,29507,3.865234375,0.56640625,3,1,1,4,13,609.773681640625,435.666687011719,0,1,faces,female,0,1,faces,A,female,EX,I,159,J04,663.677734375,1.0,0.125,-0.375,0.5,0.0,0.0,1.0
0,1,0,29641,1.1953125,0.173828125,2,1,6,37,7,920.584350585938,184.896774291992,0,1,objects,big,1,1,faces,P,female,VS,F,167,J04,697.271484375,0.0,0.0,-0.5,-0.5,1.0,1.0,0.0
0,1,0,29642,1.376953125,0.232421875,3,1,5,28,8,895.949035644531,189.697967529297,0,1,faces,male,1,1,faces,P,female,VS,F,167,J04,697.271484375,0.5,0.125,-0.375,0.0,1.0,1.0,0.0
0,1,0,29643,1.6484375,0.794921875,4,1,9,43,9,989.706237792969,751.3017578125,0,1,faces,male,1,1,faces,P,female,VS,F,167,J04,697.271484375,1.0,0.25,-0.25,0.5,1.0,1.0,0.0
1,1,0,29758,0.53125,0.31640625,2,1,2,12,3,688.631164550781,370.80712890625,0,1,faces,female,0,1,faces,A,male,EX,I,174,J04,726.666015625,0.0,0.0,-0.5,-0.5,0.0,0.0,1.0
1,1,0,29759,0.865234375,0.421875,3,1,1,1,4,597.782348632812,157.589813232422,0,1,faces,male,0,1,faces,A,male,EX,I,174,J04,726.666015625,0.3333333333333333,0.125,-0.375,-0.16666666666666669,0.0,0.0,1.0
0,1,0,29760,1.34765625,0.392578125,4,1,3,18,5,651.050048828125,985.380615234375,0,1,faces,male,0,1,faces,A,male,EX,I,174,J04,726.666015625,0.6666666666666666,0.25,-0.25,0.16666666666666663,0.0,0.0,1.0
0,1,0,29761,1.775390625,0.189453125,5,0,11,45,6,957.934936523438,914.26708984375,0,1,faces,female,0,1,faces,A,male,EX,I,174,J04,726.666015625,1.0,0.375,-0.125,0.5,0.0,0.0,1.0
0,1,0,30024,1.671875,0.390625,2,1,13,54,7,1062.82495117188,937.364624023438,0,1,objects,small,0,1,faces,A,female,EX,F,188,J04,785.455078125,0.0,0.0,-0.5,-0.5,0.0,0.0,1.0
0,1,0,30025,2.09765625,0.201171875,3,1,15,59,8,1154.97863769531,563.694152832031,0,1,faces,male,0,1,faces,A,female,EX,F,188,J04,785.455078125,0.5,0.125,-0.375,0.0,0.0,0.0,1.0
1,1,0,30027,2.7890625,0.291015625,4,1,10,39,10,977.623718261719,377.881774902344,0,1,faces,male,0,1,faces,A,female,EX,F,188,J04,785.455078125,1.0,0.25,-0.25,0.5,0.0,0.0,1.0
0,1,0,30138,1.185546875,0.150390625,2,1,5,33,4,813.9765625,651.543518066406,0,1,objects,small,1,1,faces,P,male,VS,I,194,J04,810.650390625,0.0,0.0,-0.5,-0.5,1.0,1.0,0.0
0,1,0,30139,1.3515625,0.291015625,3,1,4,24,5,734.692443847656,657.508361816406,0,1,faces,male,1,1,faces,P,male,VS,I,194,J04,810.650390625,0.2,0.125,-0.375,-0.3,1.0,1.0,0.0
0,1,0,30140,1.673828125,0.177734375,4,1,7,41,6,991.997192382812,511.3251953125,0,1,objects,big,1,1,faces,P,male,VS,I,194,J04,810.650390625,0.4,0.25,-0.25,-0.09999999999999998,1.0,1.0,0.0
0,1,0,30142,2.548828125,0.21484375,5,0,11,60,8,1134.8740234375,668.779418945312,0,1,faces,female,1,1,faces,P,male,VS,I,194,J04,810.650390625,0.6,0.375,-0.125,0.09999999999999998,1.0,1.0,0.0
0,1,0,30191,1.48046875,0.17578125,2,1,4,32,6,838.212524414062,512.977355957031,0,1,faces,female,0,1,objects,A,big,EX,O,197,J04,823.248046875,0.0,0.0,-0.5,-0.5,0.0,0.0,1.0
0,1,0,30193,2.466796875,0.41015625,3,1,15,81,8,1388.70178222656,936.032287597656,0,1,objects,big,0,1,objects,A,big,EX,O,197,J04,823.248046875,0.25,0.125,-0.375,-0.25,0.0,0.0,1.0
0,1,0,30194,2.890625,0.291015625,4,1,14,80,9,1387.89892578125,820.684204101562,0,1,objects,small,0,1,objects,A,big,EX,O,197,J04,823.248046875,0.5,0.25,-0.25,0.0,0.0,0.0,1.0
0,1,0,30195,3.21875,0.412109375,5,0,11,67,10,1230.42663574219,423.377777099609,0,1,objects,small,0,1,objects,A,big,EX,O,197,J04,823.248046875,0.75,0.375,-0.125,0.25,0.0,0.0,1.0
0,1,0,30196,3.640625,0.9140625,6,0,8,58,11,1153.18432617188,430.282806396484,0,1,objects,big,0,1,objects,A,big,EX,O,197,J04,823.248046875,1.0,0.5,0.0,0.5,0.0,0.0,1.0
0,1,0,30227,0.681640625,0.408203125,2,1,2,3,3,532.054931640625,357.188110351562,0,1,faces,female,0,1,faces,A,female,EX,F,199,J04,831.646484375,0.0,0.0,-0.5,-0.5,0.0,0.0,1.0
0,1,0,30233,3.009765625,0.193359375,3,1,13,60,9,1122.16589355469,635.630554199219,0,1,faces,female,0,1,faces,A,female,EX,F,199,J04,831.646484375,1.0,0.125,-0.375,0.5,0.0,0.0,1.0
0,1,0,30268,0.88671875,0.689453125,2,1,2,7,3,565.434204101562,732.72802734375,0,1,faces,male,0,1,faces,A,male,EX,F,201,J04,840.044921875,0.0,0.0,-0.5,-0.5,0.0,0.0,1.0
0,1,0,30269,1.623046875,0.482421875,3,1,10,53,4,1069.79541015625,797.66552734375,0,1,faces,female,0,1,faces,A,male,EX,F,201,J04,840.044921875,0.25,0.125,-0.375,-0.25,0.0,0.0,1.0
0,1,0,30272,2.56640625,0.46875,4,1,6,31,7,854.562744140625,436.901275634766,0,1,objects,small,0,1,faces,A,male,EX,F,201,J04,840.044921875,0.5,0.25,-0.25,0.0,0.0,0.0,1.0
0,1,0,30273,3.078125,0.228515625,5,0,14,68,8,1303.53601074219,576.055969238281,0,1,faces,female,0,1,faces,A,male,EX,F,201,J04,840.044921875,0.75,0.375,-0.125,0.25,0.0,0.0,1.0
0,1,0,30274,3.318359375,0.93359375,6,0,15,78,9,1345.14440917969,608.498352050781,0,1,objects,small,0,1,faces,A,male,EX,F,201,J04,840.044921875,1.0,0.5,0.0,0.5,0.0,0.0,1.0
0,1,0,30363,0.939453125,0.50390625,2,1,8,53,4,1090.40148925781,846.959533691406,0,1,faces,female,0,1,faces,A,male,EX,I,207,J04,865.240234375,0.0,0.0,-0.5,-0.5,0.0,0.0,1.0
0,1,0,30364,1.470703125,0.263671875,3,1,14,79,5,1328.80883789062,722.223083496094,0,1,objects,small,0,1,faces,A,male,EX,I,207,J04,865.240234375,0.5,0.125,-0.375,0.0,0.0,0.0,1.0
0,1,1,30366,2.0,0.490234375,4,1,3,5,7,570.537475585938,552.85009765625,0,1,objects,big,0,1,faces,A,male,EX,I,207,J04,865.240234375,1.0,0.25,-0.25,0.5,0.0,0.0,1.0
0,1,0,30437,1.068359375,0.357421875,3,1,7,42,5,967.365356445312,602.909240722656,0,1,faces,male,1,1,faces,P,male,VS,F,212,J04,886.236328125,0.0,0.125,-0.375,-0.5,1.0,1.0,0.0
0,1,0,30439,1.6328125,0.158203125,4,1,4,20,7,744.803161621094,201.561431884766,0,1,faces,male,1,1,faces,P,male,VS,F,212,J04,886.236328125,0.3333333333333333,0.25,-0.25,-0.16666666666666669,1.0,1.0,0.0
0,1,0,24402,0.580078125,0.150390625,2,1,2,15,4,642.611022949219,625.616516113281,0,1,faces,female,1,1,faces,P,female,VS,I,11,E09,42.193359375,0.0,0.0,-0.5,-0.5,1.0,1.0,0.0
0,1,0,24455,1.23046875,0.166015625,2,1,2,5,6,530.402099609375,524.948181152344,0,1,faces,female,1,1,faces,P,female,VS,I,13,E09,50.591796875,0.0,0.0,-0.5,-0.5,1.0,1.0,0.0
0,1,0,24457,1.53515625,0.30078125,3,1,1,2,8,560.668334960938,256.979278564453,0,1,objects,small,1,1,faces,P,female,VS,I,13,E09,50.591796875,0.3333333333333333,0.125,-0.375,-0.16666666666666669,1.0,1.0,0.0
0,1,1,24567,0.72265625,0.23828125,3,1,7,26,3,745.6474609375,864.486450195312,0,1,faces,female,1,1,faces,P,female,VS,F,18,E09,71.587890625,0.0,0.125,-0.375,-0.5,1.0,1.0,0.0
0,1,1,24593,1.14453125,0.140625,2,1,3,24,5,727.990478515625,675.483154296875,0,1,faces,female,1,1,faces,P,female,VS,F,19,E09,75.787109375,0.0,0.0,-0.5,-0.5,1.0,1.0,0.0
0,1,1,24595,1.490234375,0.15625,3,1,2,7,7,516.982055664062,750.371826171875,0,1,faces,female,1,1,faces,P,female,VS,F,19,E09,75.787109375,0.16666666666666666,0.125,-0.375,-0.33333333333333337,1.0,1.0,0.0
0,1,0,24597,1.884765625,0.12890625,4,1,7,45,9,929.187561035156,984.7041015625,0,1,objects,big,1,1,faces,P,female,VS,F,19,E09,75.787109375,0.3333333333333333,0.25,-0.25,-0.16666666666666669,1.0,1.0,0.0
0,1,0,24598,2.048828125,0.259765625,5,0,6,36,10,845.938720703125,949.840270996094,0,1,faces,female,1,1,faces,P,female,VS,F,19,E09,75.787109375,0.5,0.375,-0.125,0.0,1.0,1.0,0.0
0,1,1,24600,2.55078125,0.166015625,6,0,12,70,12,1243.78381347656,744.133422851562,0,1,faces,female,1,1,faces,P,female,VS,F,19,E09,75.787109375,0.6666666666666666,0.5,0.0,0.16666666666666663,1.0,1.0,0.0
0,1,0,24602,2.84375,0.251953125,7,0,15,77,14,1378.35620117188,540.724731445312,0,1,faces,male,1,1,faces,P,female,VS,F,19,E09,75.787109375,0.8333333333333334,0.625,0.125,0.33333333333333337,1.0,1.0,0.0
0,1,0,24604,3.359375,0.11328125,8,0,9,47,16,1085.89086914062,214.461685180664,0,1,objects,big,1,1,faces,P,female,VS,F,19,E09,75.787109375,1.0,0.75,0.25,0.5,1.0,1.0,0.0
0,1,0,24667,0.462890625,0.216796875,2,1,10,40,2,910.89013671875,446.242492675781,0,1,faces,male,0,1,objects,A,big,EX,O,22,E09,88.384765625,0.0,0.0,-0.5,-0.5,0.0,0.0,1.0
0,1,1,24670,1.185546875,0.21484375,3,1,3,8,5,555.634338378906,848.309997558594,0,1,faces,male,0,1,objects,A,big,EX,O,22,E09,88.384765625,0.16666666666666666,0.125,-0.375,-0.33333333333333337,0.0,0.0,1.0
0,1,1,24672,1.654296875,0.162109375,4,1,1,3,7,593.524536132812,363.858703613281,0,1,objects,big,0,1,objects,A,big,EX,O,22,E09,88.384765625,0.3333333333333333,0.25,-0.25,-0.16666666666666669,0.0,0.0,1.0
0,1,0,24674,2.158203125,0.337890625,5,0,4,11,9,649.319519042969,230.200531005859,0,1,faces,female,0,1,objects,A,big,EX,O,22,E09,88.384765625,0.5,0.375,-0.125,0.0,0.0,0.0,1.0
0,1,0,24675,2.541015625,0.591796875,6,0,6,28,10,836.611206054688,128.010986328125,0,1,objects,big,0,1,objects,A,big,EX,O,22,E09,88.384765625,0.6666666666666666,0.5,0.0,0.16666666666666663,0.0,0.0,1.0
0,1,0,24677,3.677734375,0.26171875,7,0,8,31,12,818.822814941406,460.999206542969,0,1,objects,small,0,1,objects,A,big,EX,O,22,E09,88.384765625,0.8333333333333334,0.625,0.125,0.33333333333333337,0.0,0.0,1.0
0,1,0,24678,3.984375,0.30078125,8,0,2,5,13,601.049743652344,510.155700683594,0,1,faces,male,0,1,objects,A,big,EX,O,22,E09,88.384765625,1.0,0.75,0.25,0.5,0.0,0.0,1.0
0,1,0,24693,0.48046875,0.248046875,2,1,8,31,3,888.71923828125,430.134674072266,0,1,faces,female,1,1,faces,P,female,VS,I,23,E09,92.583984375,0.0,0.0,-0.5,-0.5,1.0,1.0,0.0
0,1,0,24696,1.109375,0.142578125,3,1,2,8,6,569.049133300781,879.728942871094,0,1,faces,male,1,1,faces,P,female,VS,I,23,E09,92.583984375,0.16666666666666666,0.125,-0.375,-0.33333333333333337,1.0,1.0,0.0
0,1,0,24698,1.52734375,0.111328125,4,1,9,35,8,841.06982421875,859.6123046875,0,1,faces,female,1,1,faces,P,female,VS,I,23,E09,92.583984375,0.3333333333333333,0.25,-0.25,-0.16666666666666669,1.0,1.0,0.0
0,1,0,24702,2.1484375,0.15625,5,0,15,63,12,1159.26525878906,939.754272460938,0,1,faces,male,1,1,faces,P,female,VS,I,23,E09,92.583984375,0.5,0.375,-0.125,0.0,1.0,1.0,0.0
0,1,0,24779,0.4921875,0.11328125,2,1,2,30,2,871.323425292969,377.502807617188,0,1,faces,male,1,1,faces,P,female,VS,F,26,E09,105.181640625,0.0,0.0,-0.5,-0.5,1.0,1.0,0.0
0,1,0,24781,0.88671875,0.28515625,3,1,4,36,4,853.151123046875,950.453002929688,0,1,faces,female,1,1,faces,P,female,VS,F,26,E09,105.181640625,0.16666666666666666,0.125,-0.375,-0.33333333333333337,1.0,1.0,0.0
0,1,1,24782,1.26171875,0.12890625,4,1,7,42,5,943.383972167969,626.781372070312,0,1,faces,male,1,1,faces,P,female,VS,F,26,E09,105.181640625,0.3333333333333333,0.25,-0.25,-0.16666666666666669,1.0,1.0,0.0
0,1,1,24784,1.619140625,0.146484375,5,0,15,80,7,1355.73840332031,863.757751464844,0,1,faces,male,1,1,faces,P,female,VS,F,26,E09,105.181640625,0.5,0.375,-0.125,0.0,1.0,1.0,0.0
0,1,0,24786,1.98046875,0.12890625,6,0,14,79,9,1391.24694824219,751.547546386719,0,1,faces,male,1,1,faces,P,female,VS,F,26,E09,105.181640625,0.6666666666666666,0.5,0.0,0.16666666666666663,1.0,1.0,0.0
0,1,1,25187,0.548828125,0.169921875,2,1,2,3,3,585.219970703125,363.133819580078,0,1,faces,female,0,1,objects,A,big,EX,O,40,E09,163.970703125,0.0,0.0,-0.5,-0.5,0.0,0.0,1.0
0,1,0,25189,0.98046875,0.244140625,3,1,1,2,5,583.936950683594,269.324066162109,0,1,objects,small,0,1,objects,A,big,EX,O,40,E09,163.970703125,0.125,0.125,-0.375,-0.375,0.0,0.0,1.0
0,1,0,25191,1.423828125,0.23828125,4,1,3,19,7,772.050231933594,176.47917175293,0,1,faces,male,0,1,objects,A,big,EX,O,40,E09,163.970703125,0.25,0.25,-0.25,-0.25,0.0,0.0,1.0
0,1,0,25194,2.1953125,0.119140625,5,0,13,57,10,1185.42846679688,383.420318603516,0,1,objects,big,0,1,objects,A,big,EX,O,40,E09,163.970703125,0.375,0.375,-0.125,-0.125,0.0,0.0,1.0
0,1,1,25195,2.359375,0.1875,6,0,15,77,11,1353.15148925781,576.348083496094,0,1,faces,female,0,1,objects,A,big,EX,O,40,E09,163.970703125,0.5,0.5,0.0,0.0,0.0,0.0,1.0
0,1,1,25199,3.109375,0.173828125,8,0,6,33,15,837.012817382812,651.427734375,0,1,faces,female,0,1,objects,A,big,EX,O,40,E09,163.970703125,0.75,0.75,0.25,0.25,0.0,0.0,1.0
0,1,0,25201,3.53125,0.154296875,9,0,5,26,17,735.491882324219,802.895812988281,0,1,faces,male,0,1,objects,A,big,EX,O,40,E09,163.970703125,0.875,0.875,0.375,0.375,0.0,0.0,1.0
0,1,0,25202,3.70703125,0.1875,10,0,4,25,18,758.80224609375,790.386291503906,0,1,faces,male,0,1,objects,A,big,EX,O,40,E09,163.970703125,1.0,1.0,0.5,0.5,0.0,0.0,1.0
0,1,0,25317,2.53515625,0.1640625,2,1,5,31,4,883.573181152344,481.575012207031,0,1,faces,female,1,1,objects,P,big,VS,O,44,E09,180.767578125,0.0,0.0,-0.5,-0.5,1.0,1.0,0.0
0,1,0,25319,3.056640625,0.13671875,3,1,14,75,6,1366.79956054688,361.331115722656,0,1,faces,male,1,1,objects,P,big,VS,O,44,E09,180.767578125,1.0,0.125,-0.375,0.5,1.0,1.0,0.0
0,1,0,25337,2.646484375,0.181640625,2,1,11,60,6,1156.47521972656,629.151184082031,0,1,objects,small,0,1,faces,A,male,EX,F,45,E09,184.966796875,0.0,0.0,-0.5,-0.5,0.0,0.0,1.0
0,1,0,25340,3.466796875,0.20703125,3,1,14,73,9,1375.63537597656,140.274002075195,0,1,objects,big,0,1,faces,A,male,EX,F,45,E09,184.966796875,1.0,0.125,-0.375,0.5,0.0,0.0,1.0
0,1,1,25719,1.546875,0.142578125,2,1,12,63,11,1153.72045898438,954.167297363281,0,1,faces,female,1,1,faces,P,male,VS,F,64,E09,264.751953125,0.0,0.0,-0.5,-0.5,1.0,1.0,0.0
0,1,0,25726,2.619140625,0.134765625,3,1,5,28,18,890.431213378906,159.458038330078,0,1,objects,big,1,1,faces,P,male,VS,F,64,E09,264.751953125,0.3333333333333333,0.125,-0.375,-0.16666666666666669,1.0,1.0,0.0
0,1,0,25727,2.818359375,0.1328125,4,1,13,64,19,1264.55969238281,153.674987792969,0,1,faces,female,1,1,faces,P,male,VS,F,64,E09,264.751953125,0.6666666666666666,0.25,-0.25,0.16666666666666663,1.0,1.0,0.0
0,1,0,25728,2.986328125,0.19140625,5,0,11,55,20,1174.38916015625,127.884315490723,0,1,faces,female,1,1,faces,P,male,VS,F,64,E09,264.751953125,1.0,0.375,-0.125,0.5,1.0,1.0,0.0
0,1,0,25746,0.62890625,0.16796875,2,1,8,37,2,978.075500488281,163.777191162109,0,1,faces,female,1,1,objects,P,small,VS,O,65,E09,268.951171875,0.0,0.0,-0.5,-0.5,1.0,1.0,0.0
0,1,0,25747,0.869140625,0.46875,3,1,12,65,3,1270.54370117188,259.665893554688,0,1,objects,big,1,1,objects,P,small,VS,O,65,E09,268.951171875,0.3333333333333333,0.125,-0.375,-0.16666666666666669,1.0,1.0,0.0
0,1,0,25750,1.9921875,0.255859375,4,1,11,59,6,1177.92651367188,578.992065429688,0,1,faces,male,1,1,objects,P,small,VS,O,65,E09,268.951171875,0.6666666666666666,0.25,-0.25,0.16666666666666663,1.0,1.0,0.0
0,1,0,25752,2.552734375,0.2421875,5,0,6,27,8,807.214538574219,900.035949707031,0,1,objects,small,1,1,objects,P,small,VS,O,65,E09,268.951171875,1.0,0.375,-0.125,0.5,1.0,1.0,0.0
0,1,0,25774,1.77734375,0.189453125,2,1,7,49,3,1077.53259277344,456.384796142578,0,1,faces,male,0,1,objects,A,small,EX,O,66,E09,273.150390625,0.0,0.0,-0.5,-0.5,0.0,0.0,1.0
0,1,0,25776,2.29296875,0.228515625,3,1,2,13,5,671.065246582031,465.170379638672,0,1,faces,male,0,1,objects,A,small,EX,O,66,E09,273.150390625,1.0,0.125,-0.375,0.5,0.0,0.0,1.0
0,1,0,25861,2.076171875,0.2421875,2,1,15,67,9,1281.01110839844,444.506500244141,0,1,faces,male,1,1,faces,P,female,VS,I,68,E09,281.548828125,0.0,0.0,-0.5,-0.5,1.0,1.0,0.0
0,1,0,25862,2.376953125,0.1953125,3,1,10,40,10,952.095642089844,477.943603515625,0,1,faces,female,1,1,faces,P,female,VS,I,68,E09,281.548828125,1.0,0.125,-0.375,0.5,1.0,1.0,0.0
0,1,1,25953,3.11328125,0.12890625,2,1,8,33,10,845.313354492188,690.086303710938,0,1,objects,small,0,1,faces,A,male,EX,F,71,E09,294.146484375,0.0,0.0,-0.5,-0.5,0.0,0.0,1.0
0,1,0,25955,3.373046875,0.287109375,3,1,9,50,12,1062.40478515625,572.361145019531,0,1,faces,female,0,1,faces,A,male,EX,F,71,E09,294.146484375,1.0,0.125,-0.375,0.5,0.0,0.0,1.0
0,1,0,26360,1.078125,0.11328125,2,1,7,34,5,843.933166503906,764.186340332031,0,1,faces,female,1,1,objects,P,small,VS,O,73,E09,302.544921875,0.0,0.0,-0.5,-0.5,1.0,1.0,0.0
0,1,1,26362,1.390625,0.119140625,3,1,1,3,7,556.917175292969,381.540069580078,0,1,faces,male,1,1,objects,P,small,VS,O,73,E09,302.544921875,1.0,0.125,-0.375,0.5,1.0,1.0,0.0
0,1,0,26573,0.556640625,0.220703125,2,1,1,1,2,609.093078613281,151.279479980469,0,1,faces,female,0,1,faces,A,female,EX,F,78,E09,323.541015625,0.0,0.0,-0.5,-0.5,0.0,0.0,1.0
0,1,0,26575,1.35546875,0.263671875,4,1,7,38,4,992.807983398438,259.107818603516,0,1,objects,big,0,1,faces,A,female,EX,F,78,E09,323.541015625,0.3333333333333333,0.25,-0.25,-0.16666666666666669,0.0,0.0,1.0
0,1,0,26576,1.65625,0.458984375,5,0,8,48,5,1095.21557617188,340.767211914062,0,1,faces,male,0,1,faces,A,female,EX,F,78,E09,323.541015625,0.5,0.375,-0.125,0.0,0.0,0.0,1.0
0,1,0,26578,2.525390625,0.638671875,6,0,14,68,7,1309.69653320312,540.549255371094,0,1,faces,male,0,1,faces,A,female,EX,F,78,E09,323.541015625,0.6666666666666666,0.5,0.0,0.16666666666666663,0.0,0.0,1.0
0,1,0,26579,3.2265625,0.328125,7,0,10,50,8,1109.69982910156,493.067321777344,0,1,objects,small,0,1,faces,A,female,EX,F,78,E09,323.541015625,0.8333333333333334,0.625,0.125,0.33333333333333337,0.0,0.0,1.0
0,1,0,26580,3.595703125,0.15625,8,0,13,60,9,1156.83032226562,613.376708984375,0,1,faces,female,0,1,faces,A,female,EX,F,78,E09,323.541015625,1.0,0.75,0.25,0.5,0.0,0.0,1.0
0,1,1,26595,0.400390625,0.193359375,2,1,6,28,2,818.066772460938,165.776107788086,0,1,faces,male,1,1,objects,P,small,VS,O,79,E09,327.740234375,0.0,0.0,-0.5,-0.5,1.0,1.0,0.0
0,1,1,26597,0.87109375,0.109375,3,1,14,66,4,1223.37280273438,304.345275878906,0,1,objects,big,1,1,objects,P,small,VS,O,79,E09,327.740234375,0.5,0.125,-0.375,0.0,1.0,1.0,0.0
0,1,0,26600,1.4296875,0.1875,4,1,15,79,7,1319.20886230469,714.352600097656,0,1,faces,female,1,1,objects,P,small,VS,O,79,E09,327.740234375,1.0,0.25,-0.25,0.5,1.0,1.0,0.0
0,1,1,26746,0.478515625,0.1640625,2,1,1,7,2,584.942443847656,699.588928222656,0,1,faces,female,0,1,objects,A,small,EX,O,84,E09,348.736328125,0.0,0.0,-0.5,-0.5,0.0,0.0,1.0
0,1,0,26748,0.994140625,0.1328125,3,1,12,67,4,1243.25415039062,481.122467041016,0,1,objects,small,0,1,objects,A,small,EX,O,84,E09,348.736328125,0.2,0.125,-0.375,-0.3,0.0,0.0,1.0
0,1,1,26749,1.16015625,0.1015625,4,1,11,58,5,1183.62927246094,442.187316894531,0,1,faces,male,0,1,objects,A,small,EX,O,84,E09,348.736328125,0.4,0.25,-0.25,-0.09999999999999998,0.0,0.0,1.0
0,1,1,26754,2.42578125,0.138671875,5,0,6,42,10,990.560607910156,656.096252441406,0,1,faces,female,0,1,objects,A,small,EX,O,84,E09,348.736328125,0.6,0.375,-0.125,0.09999999999999998,0.0,0.0,1.0
0,1,0,26757,3.134765625,0.181640625,6,0,9,54,13,1099.00427246094,948.458923339844,0,1,objects,big,0,1,objects,A,small,EX,O,84,E09,348.736328125,0.8,0.5,0.0,0.30000000000000004,0.0,0.0,1.0
0,1,1,26758,3.35546875,0.19921875,7,0,5,36,14,871.427490234375,958.177001953125,0,1,faces,female,0,1,objects,A,small,EX,O,84,E09,348.736328125,1.0,0.625,0.125,0.5,0.0,0.0,1.0
0,1,0,26777,0.828125,0.1484375,2,1,7,28,5,860.735168457031,183.127883911133,0,1,faces,female,1,1,faces,P,female,VS,I,85,E09,352.935546875,0.0,0.0,-0.5,-0.5,1.0,1.0,0.0
0,1,0,26779,1.296875,0.150390625,3,1,4,20,7,808.246215820312,264.009582519531,0,1,objects,small,1,1,faces,P,female,VS,I,85,E09,352.935546875,1.0,0.125,-0.375,0.5,1.0,1.0,0.0
0,1,0,26820,0.4765625,0.1171875,2,1,3,11,3,687.033081054688,208.411361694336,0,1,faces,female,0,1,faces,A,male,EX,F,87,E09,361.333984375,0.0,0.0,-0.5,-0.5,0.0,0.0,1.0
0,1,0,26821,0.6328125,0.19140625,3,1,2,10,4,625.627746582031,145.649917602539,0,1,faces,female,0,1,faces,A,male,EX,F,87,E09,361.333984375,1.0,0.125,-0.375,0.5,0.0,0.0,1.0
0,1,1,26971,1.453125,0.19921875,2,1,12,67,8,1233.76184082031,472.894500732422,0,1,faces,male,1,1,faces,P,male,VS,I,93,E09,386.529296875,0.0,0.0,-0.5,-0.5,1.0,1.0,0.0
0,1,0,26973,1.900390625,0.18359375,3,1,6,34,10,898.544616699219,770.1337890625,0,1,objects,big,1,1,faces,P,male,VS,I,93,E09,386.529296875,0.25,0.125,-0.375,-0.25,1.0,1.0,0.0
0,1,0,26974,2.142578125,0.181640625,4,1,3,14,11,699.147521972656,545.303588867188,0,1,objects,big,1,1,faces,P,male,VS,I,93,E09,386.529296875,0.5,0.25,-0.25,0.0,1.0,1.0,0.0
0,1,0,26975,2.375,0.185546875,5,0,4,17,12,665.974792480469,812.730041503906,0,1,faces,female,1,1,faces,P,male,VS,I,93,E09,386.529296875,0.75,0.375,-0.125,0.25,1.0,1.0,0.0
0,1,0,26977,2.708984375,0.212890625,6,0,5,26,14,735.458557128906,854.711181640625,0,1,faces,male,1,1,faces,P,male,VS,I,93,E09,386.529296875,1.0,0.5,0.0,0.5,1.0,1.0,0.0
0,1,0,27121,0.54296875,0.166015625,2,1,4,11,3,633.675354003906,264.562652587891,0,1,faces,female,0,1,faces,A,female,EX,F,99,E09,411.724609375,0.0,0.0,-0.5,-0.5,0.0,0.0,1.0
0,1,1,27122,1.5078125,0.326171875,3,1,2,5,4,542.942993164062,539.05419921875,0,1,faces,male,0,1,faces,A,female,EX,F,99,E09,411.724609375,0.2,0.125,-0.375,-0.3,0.0,0.0,1.0
0,1,0,27124,2.076171875,0.197265625,4,1,1,4,6,567.835266113281,456.051513671875,0,1,objects,big,0,1,faces,A,female,EX,F,99,E09,411.724609375,0.4,0.25,-0.25,-0.09999999999999998,0.0,0.0,1.0
0,1,1,27125,2.37109375,0.173828125,5,0,3,9,7,537.923522949219,921.269836425781,0,1,faces,female,0,1,faces,A,female,EX,F,99,E09,411.724609375,0.6,0.375,-0.125,0.09999999999999998,0.0,0.0,1.0
0,1,0,27128,3.09375,0.564453125,6,0,10,50,10,1074.07788085938,537.096740722656,0,1,faces,male,0,1,faces,A,female,EX,F,99,E09,411.724609375,0.8,0.5,0.0,0.30000000000000004,0.0,0.0,1.0
0,1,1,27129,3.697265625,0.22265625,7,0,9,49,11,1072.44689941406,420.191925048828,0,1,faces,female,0,1,faces,A,female,EX,F,99,E09,411.724609375,1.0,0.625,0.125,0.5,0.0,0.0,1.0
0,1,1,27152,0.685546875,0.162109375,2,1,2,13,5,687.814636230469,445.458526611328,0,1,faces,male,1,1,faces,P,male,VS,F,100,E09,415.923828125,0.0,0.0,-0.5,-0.5,1.0,1.0,0.0
0,1,1,27154,1.05859375,0.15625,3,1,3,17,7,666.092041015625,878.565124511719,0,1,faces,male,1,1,faces,P,male,VS,F,100,E09,415.923828125,0.2,0.125,-0.375,-0.3,1.0,1.0,0.0
0,1,0,27157,1.689453125,0.181640625,4,1,15,79,10,1396.33764648438,759.216979980469,0,1,faces,male,1,1,faces,P,male,VS,F,100,E09,415.923828125,0.4,0.25,-0.25,-0.09999999999999998,1.0,1.0,0.0
0,1,0,27158,1.91015625,0.150390625,5,0,14,72,11,1270.31335449219,971.301513671875,0,1,faces,female,1,1,faces,P,male,VS,F,100,E09,415.923828125,0.6,0.375,-0.125,0.09999999999999998,1.0,1.0,0.0
0,1,0,27160,2.41015625,0.1328125,6,0,12,65,13,1254.32434082031,207.175445556641,0,1,faces,female,1,1,faces,P,male,VS,F,100,E09,415.923828125,0.8,0.5,0.0,0.30000000000000004,1.0,1.0,0.0
0,1,1,27161,2.58203125,0.240234375,7,0,7,47,14,1095.99267578125,231.092803955078,0,1,faces,female,1,1,faces,P,male,VS,F,100,E09,415.923828125,1.0,0.625,0.125,0.5,1.0,1.0,0.0
0,1,0,27178,0.51953125,0.26171875,2,1,1,5,2,556.773742675781,537.738403320312,0,1,objects,small,0,1,faces,A,female,EX,I,101,E09,420.123046875,0.0,0.0,-0.5,-0.5,0.0,0.0,1.0
0,1,0,27182,1.93359375,0.25390625,4,1,14,75,6,1388.71923828125,339.496612548828,0,1,faces,female,0,1,faces,A,female,EX,I,101,E09,420.123046875,1.0,0.25,-0.25,0.5,0.0,0.0,1.0
0,1,1,27257,0.50390625,0.1875,2,1,1,18,2,620.736511230469,923.586364746094,0,1,faces,female,0,1,objects,A,big,EX,O,104,E09,432.720703125,0.0,0.0,-0.5,-0.5,0.0,0.0,1.0
0,1,0,27259,0.86328125,0.263671875,3,1,6,45,4,988.766174316406,961.422424316406,0,1,objects,big,0,1,objects,A,big,EX,O,104,E09,432.720703125,0.2,0.125,-0.375,-0.3,0.0,0.0,1.0
0,1,0,27260,1.22265625,0.14453125,4,1,8,58,5,1161.84594726562,489.812072753906,0,1,faces,male,0,1,objects,A,big,EX,O,104,E09,432.720703125,0.4,0.25,-0.25,-0.09999999999999998,0.0,0.0,1.0
0,1,0,27262,1.6796875,0.16015625,5,0,4,37,7,980.939514160156,135.542846679688,0,1,faces,female,0,1,objects,A,big,EX,O,104,E09,432.720703125,0.6,0.375,-0.125,0.09999999999999998,0.0,0.0,1.0
0,1,0,27263,1.912109375,0.474609375,6,0,14,73,8,1381.54614257812,135.023452758789,0,1,objects,small,0,1,objects,A,big,EX,O,104,E09,432.720703125,0.8,0.5,0.0,0.30000000000000004,0.0,0.0,1.0
0,1,0,27264,3.349609375,0.279296875,7,0,7,48,9,1068.09558105469,350.045013427734,0,1,objects,small,0,1,objects,A,big,EX,O,104,E09,432.720703125,1.0,0.625,0.125,0.5,0.0,0.0,1.0
0,1,0,27477,0.544921875,0.236328125,2,1,2,2,2,570.956420898438,264.460906982422,0,1,faces,female,0,1,faces,A,male,EX,F,112,E09,466.314453125,0.0,0.0,-0.5,-0.5,0.0,0.0,1.0
0,1,0,27478,1.474609375,0.306640625,3,1,1,1,3,558.841430664062,119.74779510498,0,1,faces,female,0,1,faces,A,male,EX,F,112,E09,466.314453125,0.2,0.125,-0.375,-0.3,0.0,0.0,1.0
0,1,0,27480,2.076171875,0.12109375,4,1,7,48,5,1098.36401367188,324.093627929688,0,1,faces,female,0,1,faces,A,male,EX,F,112,E09,466.314453125,0.4,0.25,-0.25,-0.09999999999999998,0.0,0.0,1.0
0,1,0,27481,2.306640625,0.1875,5,0,4,21,6,807.006408691406,344.401000976562,0,1,objects,small,0,1,faces,A,male,EX,F,112,E09,466.314453125,0.6,0.375,-0.125,0.09999999999999998,0.0,0.0,1.0
0,1,0,27483,3.755859375,0.27734375,7,0,8,49,8,1060.10095214844,408.674133300781,0,1,faces,male,0,1,faces,A,male,EX,F,112,E09,466.314453125,1.0,0.625,0.125,0.5,0.0,0.0,1.0
0,1,1,27539,0.458984375,0.28515625,2,1,6,29,2,811.765930175781,234.974227905273,0,1,faces,female,1,1,faces,P,male,VS,I,118,E09,491.509765625,0.0,0.0,-0.5,-0.5,1.0,1.0,0.0
0,1,0,27541,1.068359375,0.228515625,3,1,2,7,4,599.71435546875,751.853149414062,0,1,objects,small,1,1,faces,P,male,VS,I,118,E09,491.509765625,0.125,0.125,-0.375,-0.375,1.0,1.0,0.0
0,1,0,27542,1.34765625,0.115234375,4,1,3,14,5,670.249938964844,554.578857421875,0,1,objects,small,1,1,faces,P,male,VS,I,118,E09,491.509765625,0.25,0.25,-0.25,-0.25,1.0,1.0,0.0
1,1,0,27544,1.73828125,0.140625,6,0,9,43,7,1009.8173828125,729.91357421875,0,1,objects,big,1,1,faces,P,male,VS,I,118,E09,491.509765625,0.5,0.5,0.0,0.0,1.0,1.0,0.0
0,1,0,27582,0.673828125,0.158203125,2,1,1,2,4,570.675415039062,256.231170654297,0,1,faces,female,0,1,objects,A,small,EX,O,120,E09,499.908203125,0.0,0.0,-0.5,-0.5,0.0,0.0,1.0
0,1,0,27583,1.83984375,0.3359375,3,1,13,65,5,1285.65478515625,238.201507568359,0,1,faces,female,0,1,objects,A,small,EX,O,120,E09,499.908203125,0.25,0.125,-0.375,-0.25,0.0,0.0,1.0
0,1,0,27585,2.556640625,0.24609375,4,1,12,50,7,1047.00341796875,513.350891113281,0,1,objects,small,0,1,objects,A,small,EX,O,120,E09,499.908203125,0.5,0.25,-0.25,0.0,0.0,0.0,1.0
0,1,0,27586,2.83984375,0.408203125,5,0,8,40,8,979.529663085938,431.235076904297,0,1,faces,female,0,1,objects,A,small,EX,O,120,E09,499.908203125,0.75,0.375,-0.125,0.25,0.0,0.0,1.0
0,1,0,27588,3.716796875,0.287109375,6,0,5,31,10,880.424987792969,463.675170898438,0,1,faces,male,0,1,objects,A,small,EX,O,120,E09,499.908203125,1.0,0.5,0.0,0.5,0.0,0.0,1.0
0,1,0,27625,0.7578125,0.32421875,2,1,2,11,4,684.582458496094,232.316482543945,0,1,faces,female,0,1,faces,A,female,EX,F,122,E09,508.306640625,0.0,0.0,-0.5,-0.5,0.0,0.0,1.0
0,1,0,27627,1.365234375,0.427734375,3,1,11,46,6,1076.92346191406,147.589538574219,0,1,objects,big,0,1,faces,A,female,EX,F,122,E09,508.306640625,0.5,0.125,-0.375,0.0,0.0,0.0,1.0
0,1,0,27628,1.845703125,0.462890625,4,1,7,19,7,731.046081542969,175.750625610352,0,1,faces,male,0,1,faces,A,female,EX,F,122,E09,508.306640625,1.0,0.25,-0.25,0.5,0.0,0.0,1.0
0,1,0,27714,0.404296875,0.224609375,2,1,2,7,3,531.236328125,744.388488769531,0,1,faces,male,1,1,faces,P,female,VS,F,126,E09,525.103515625,0.0,0.0,-0.5,-0.5,1.0,1.0,0.0
0,1,1,27715,0.677734375,0.146484375,3,1,5,34,4,893.147705078125,765.21923828125,0,1,faces,female,1,1,faces,P,female,VS,F,126,E09,525.103515625,0.2,0.125,-0.375,-0.3,1.0,1.0,0.0
0,1,1,27717,1.185546875,0.16015625,4,1,11,54,6,1080.52307128906,949.339721679688,0,1,faces,female,1,1,faces,P,female,VS,F,126,E09,525.103515625,0.4,0.25,-0.25,-0.09999999999999998,1.0,1.0,0.0
0,1,0,27719,1.529296875,0.208984375,5,0,15,80,8,1318.056640625,840.399230957031,0,1,faces,male,1,1,faces,P,female,VS,F,126,E09,525.103515625,0.6,0.375,-0.125,0.09999999999999998,1.0,1.0,0.0
0,1,0,27720,1.765625,0.111328125,6,0,13,71,9,1271.44653320312,836.279418945312,0,1,faces,male,1,1,faces,P,female,VS,F,126,E09,525.103515625,0.8,0.5,0.0,0.30000000000000004,1.0,1.0,0.0
0,1,0,27721,1.93359375,0.1953125,7,0,12,60,10,1123.66943359375,601.686706542969,0,1,faces,female,1,1,faces,P,female,VS,F,126,E09,525.103515625,1.0,0.625,0.125,0.5,1.0,1.0,0.0
0,1,0,27732,0.498046875,0.20703125,2,1,1,1,2,604.7802734375,190.270629882812,0,1,objects,small,0,1,objects,A,big,EX,O,127,E09,529.302734375,0.0,0.0,-0.5,-0.5,0.0,0.0,1.0
0,1,0,27733,0.736328125,0.4140625,3,1,4,11,3,645.608032226562,224.62483215332,0,1,faces,male,0,1,objects,A,big,EX,O,127,E09,529.302734375,0.3333333333333333,0.125,-0.375,-0.16666666666666669,0.0,0.0,1.0
0,1,0,27734,1.234375,0.2578125,4,1,3,10,4,658.624450683594,120.434440612793,0,1,faces,female,0,1,objects,A,big,EX,O,127,E09,529.302734375,0.6666666666666666,0.25,-0.25,0.16666666666666663,0.0,0.0,1.0
0,1,1,27737,2.052734375,0.150390625,5,0,14,76,7,1349.57312011719,441.247863769531,0,1,faces,male,0,1,objects,A,big,EX,O,127,E09,529.302734375,1.0,0.375,-0.125,0.5,0.0,0.0,1.0
0,1,0,27756,0.33984375,0.119140625,2,1,7,33,2,877.832763671875,595.753967285156,0,1,objects,big,1,1,faces,P,female,VS,F,128,E09,533.501953125,0.0,0.0,-0.5,-0.5,1.0,1.0,0.0
0,1,0,27757,0.482421875,0.248046875,3,1,6,32,3,874.201965332031,549.130615234375,0,1,faces,male,1,1,faces,P,female,VS,F,128,E09,533.501953125,0.5,0.125,-0.375,0.0,1.0,1.0,0.0
0,1,0,27761,1.302734375,0.228515625,4,1,5,19,7,758.482666015625,125.906112670898,0,1,faces,male,1,1,faces,P,female,VS,F,128,E09,533.501953125,1.0,0.25,-0.25,0.5,1.0,1.0,0.0
0,1,0,27807,1.177734375,0.21484375,2,1,15,74,6,1379.61486816406,255.63053894043,0,1,objects,small,1,1,objects,P,small,VS,O,130,E09,541.900390625,0.0,0.0,-0.5,-0.5,1.0,1.0,0.0
0,1,0,27808,1.462890625,0.193359375,3,1,3,19,7,802.132873535156,162.840209960938,0,1,faces,female,1,1,objects,P,small,VS,O,130,E09,541.900390625,1.0,0.125,-0.375,0.5,1.0,1.0,0.0
0,1,0,27857,1.228515625,0.111328125,2,1,1,2,6,555.774658203125,208.430755615234,0,1,faces,female,1,1,faces,P,male,VS,I,132,E09,550.298828125,0.0,0.0,-0.5,-0.5,1.0,1.0,0.0
0,1,0,27858,1.412109375,0.126953125,3,1,5,28,7,820.733276367188,143.401657104492,0,1,faces,female,1,1,faces,P,male,VS,I,132,E09,550.298828125,0.2,0.125,-0.375,-0.3,1.0,1.0,0.0
0,1,0,27860,1.837890625,0.138671875,4,1,12,65,9,1264.86169433594,237.90412902832,0,1,faces,female,1,1,faces,P,male,VS,I,132,E09,550.298828125,0.4,0.25,-0.25,-0.09999999999999998,1.0,1.0,0.0
0,1,0,27861,2.009765625,0.189453125,5,0,9,48,10,1094.1064453125,331.151611328125,0,1,faces,male,1,1,faces,P,male,VS,I,132,E09,550.298828125,0.6,0.375,-0.125,0.09999999999999998,1.0,1.0,0.0
0,1,1,27863,2.482421875,0.1640625,7,0,8,44,12,915.997009277344,844.520446777344,0,1,objects,big,1,1,faces,P,male,VS,I,132,E09,550.298828125,1.0,0.625,0.125,0.5,1.0,1.0,0.0
1,1,0,27872,0.671875,0.154296875,2,1,2,6,3,525.665771484375,637.664672851562,0,1,faces,female,0,1,faces,A,male,EX,F,133,E09,554.498046875,0.0,0.0,-0.5,-0.5,0.0,0.0,1.0
1,1,1,27873,0.890625,0.1484375,3,1,8,32,4,847.06005859375,574.843566894531,0,1,faces,female,0,1,faces,A,male,EX,F,133,E09,554.498046875,0.25,0.125,-0.375,-0.25,0.0,0.0,1.0
0,1,1,27875,1.30859375,0.154296875,4,1,4,11,6,669.900634765625,257.794982910156,0,1,faces,female,0,1,faces,A,male,EX,F,133,E09,554.498046875,0.5,0.25,-0.25,0.0,0.0,0.0,1.0
0,1,0,27877,1.841796875,0.21484375,5,0,6,19,8,740.658386230469,149.44108581543,0,1,faces,male,0,1,faces,A,male,EX,F,133,E09,554.498046875,0.75,0.375,-0.125,0.25,0.0,0.0,1.0
0,1,1,27880,2.62890625,0.279296875,6,0,10,55,11,1183.98095703125,129.594421386719,0,1,faces,male,0,1,faces,A,male,EX,F,133,E09,554.498046875,1.0,0.5,0.0,0.5,0.0,0.0,1.0
0,1,0,27932,0.72265625,0.126953125,2,1,1,5,3,522.931640625,546.872314453125,0,1,faces,female,1,1,faces,P,male,VS,F,135,E09,562.896484375,0.0,0.0,-0.5,-0.5,1.0,1.0,0.0
0,1,0,27934,1.080078125,0.26953125,3,1,2,8,5,529.534423828125,862.722106933594,0,1,faces,male,1,1,faces,P,male,VS,F,135,E09,562.896484375,1.0,0.125,-0.375,0.5,1.0,1.0,0.0
0,1,0,27950,0.427734375,0.140625,2,1,2,15,2,686.352783203125,683.501892089844,0,1,faces,female,1,1,objects,P,small,VS,O,136,E09,567.095703125,0.0,0.0,-0.5,-0.5,1.0,1.0,0.0
0,1,0,27952,0.796875,0.177734375,4,1,12,69,4,1253.69372558594,613.224182128906,0,1,faces,male,1,1,objects,P,small,VS,O,136,E09,567.095703125,0.5,0.25,-0.25,0.0,1.0,1.0,0.0
0,1,0,27953,1.009765625,0.138671875,5,0,11,68,5,1271.06652832031,552.21728515625,0,1,objects,small,1,1,objects,P,small,VS,O,136,E09,567.095703125,0.75,0.375,-0.125,0.25,1.0,1.0,0.0
0,1,0,27954,1.25390625,0.216796875,6,0,10,56,6,1149.24060058594,208.535873413086,0,1,faces,female,1,1,objects,P,small,VS,O,136,E09,567.095703125,1.0,0.5,0.0,0.5,1.0,1.0,0.0
0,1,1,27996,1.9453125,0.228515625,2,1,12,66,7,1273.9189453125,326.094512939453,0,1,faces,female,0,1,faces,A,female,EX,I,138,E09,575.494140625,0.0,0.0,-0.5,-0.5,0.0,0.0,1.0
0,1,1,27998,2.416015625,0.208984375,3,1,10,58,9,1152.41552734375,476.544982910156,0,1,faces,male,0,1,faces,A,female,EX,I,138,E09,575.494140625,0.3333333333333333,0.125,-0.375,-0.16666666666666669,0.0,0.0,1.0
0,1,1,28000,2.744140625,0.3125,4,1,3,14,11,656.032653808594,567.632934570312,0,1,objects,big,0,1,faces,A,female,EX,I,138,E09,575.494140625,0.6666666666666666,0.25,-0.25,0.16666666666666663,0.0,0.0,1.0
0,1,0,28002,3.181640625,0.4375,5,0,6,33,13,835.575988769531,642.08251953125,0,1,faces,female,0,1,faces,A,female,EX,I,138,E09,575.494140625,1.0,0.375,-0.125,0.5,0.0,0.0,1.0
0,1,1,28017,0.748046875,0.193359375,2,1,1,2,4,541.930969238281,216.655502319336,0,1,faces,female,0,1,objects,A,small,EX,O,139,E09,579.693359375,0.0,0.0,-0.5,-0.5,0.0,0.0,1.0
0,1,1,28019,1.380859375,0.212890625,3,1,7,47,6,1061.43005371094,233.810821533203,0,1,faces,female,0,1,objects,A,small,EX,O,139,E09,579.693359375,0.16666666666666666,0.125,-0.375,-0.33333333333333337,0.0,0.0,1.0
0,1,0,28021,1.8515625,0.21484375,4,1,12,65,8,1243.39392089844,258.408111572266,0,1,faces,female,0,1,objects,A,small,EX,O,139,E09,579.693359375,0.3333333333333333,0.25,-0.25,-0.16666666666666669,0.0,0.0,1.0
0,1,0,28022,2.09375,0.390625,5,0,13,66,9,1258.25854492188,346.834136962891,0,1,faces,male,0,1,objects,A,small,EX,O,139,E09,579.693359375,0.5,0.375,-0.125,0.0,0.0,0.0,1.0
0,1,1,28023,2.619140625,0.13671875,6,0,2,7,10,571.090209960938,717.689819335938,0,1,objects,big,0,1,objects,A,small,EX,O,139,E09,579.693359375,0.6666666666666666,0.5,0.0,0.16666666666666663,0.0,0.0,1.0
0,1,1,28027,3.65234375,0.177734375,8,0,8,54,14,1040.73022460938,979.618041992188,0,1,faces,male,0,1,objects,A,small,EX,O,139,E09,579.693359375,1.0,0.75,0.25,0.5,0.0,0.0,1.0
0,1,1,28121,0.484375,0.181640625,2,1,5,14,3,622.603698730469,539.5361328125,0,1,faces,female,1,1,faces,P,female,VS,I,143,E09,596.490234375,0.0,0.0,-0.5,-0.5,1.0,1.0,0.0
0,1,0,28124,1.69921875,0.109375,3,1,6,18,6,642.476135253906,935.919250488281,0,1,faces,female,1,1,faces,P,female,VS,I,143,E09,596.490234375,0.2,0.125,-0.375,-0.3,1.0,1.0,0.0
0,1,0,28125,1.849609375,0.201171875,4,1,2,8,7,557.022338867188,866.4306640625,0,1,faces,male,1,1,faces,P,female,VS,I,143,E09,596.490234375,0.4,0.25,-0.25,-0.09999999999999998,1.0,1.0,0.0
0,1,0,28127,2.396484375,0.1953125,5,0,12,72,9,1272.45202636719,923.248046875,0,1,faces,female,1,1,faces,P,female,VS,I,143,E09,596.490234375,0.6,0.375,-0.125,0.09999999999999998,1.0,1.0,0.0
0,1,0,28128,2.66796875,0.150390625,6,0,13,75,10,1340.3505859375,362.980499267578,0,1,faces,male,1,1,faces,P,female,VS,I,143,E09,596.490234375,0.8,0.5,0.0,0.30000000000000004,1.0,1.0,0.0
0,1,0,28129,2.857421875,0.130859375,7,0,11,57,11,1204.82434082031,314.607177734375,0,1,objects,big,1,1,faces,P,female,VS,I,143,E09,596.490234375,1.0,0.625,0.125,0.5,1.0,1.0,0.0
0,1,0,28400,0.548828125,0.142578125,2,1,4,20,3,733.809265136719,237.099884033203,0,1,faces,male,1,1,faces,P,male,VS,F,148,E09,617.486328125,0.0,0.0,-0.5,-0.5,1.0,1.0,0.0
0,1,0,28403,1.146484375,0.146484375,3,1,1,4,6,588.393615722656,483.859741210938,0,1,faces,female,1,1,faces,P,male,VS,F,148,E09,617.486328125,0.125,0.125,-0.375,-0.375,1.0,1.0,0.0
0,1,0,28405,1.544921875,0.203125,4,1,2,8,8,514.036926269531,858.663452148438,0,1,faces,male,1,1,faces,P,male,VS,F,148,E09,617.486328125,0.25,0.25,-0.25,-0.25,1.0,1.0,0.0
0,1,0,28406,1.828125,0.15234375,5,0,11,71,9,1246.70983886719,850.761291503906,0,1,objects,big,1,1,faces,P,male,VS,F,148,E09,617.486328125,0.375,0.375,-0.125,-0.125,1.0,1.0,0.0
0,1,0,28424,0.779296875,0.1796875,2,1,2,16,3,619.038024902344,741.180053710938,0,1,faces,female,1,1,objects,P,small,VS,O,149,E09,621.685546875,0.0,0.0,-0.5,-0.5,1.0,1.0,0.0
0,1,0,28426,1.2265625,0.18359375,3,1,10,50,5,1080.31262207031,550.201232910156,0,1,faces,female,1,1,objects,P,small,VS,O,149,E09,621.685546875,0.3333333333333333,0.125,-0.375,-0.16666666666666669,1.0,1.0,0.0
0,1,0,28427,1.447265625,0.189453125,4,1,9,42,6,940.39013671875,674.292541503906,0,1,objects,small,1,1,objects,P,small,VS,O,149,E09,621.685546875,0.6666666666666666,0.25,-0.25,0.16666666666666663,1.0,1.0,0.0
0,1,0,28428,1.673828125,0.146484375,5,0,6,35,7,833.747802734375,816.198913574219,0,1,faces,male,1,1,objects,P,small,VS,O,149,E09,621.685546875,1.0,0.375,-0.125,0.5,1.0,1.0,0.0
0,1,0,28448,1.421875,0.19140625,2,1,10,48,7,1050.96606445312,344.081756591797,0,1,objects,small,1,1,objects,P,big,VS,O,150,E09,625.884765625,0.0,0.0,-0.5,-0.5,1.0,1.0,0.0
0,1,0,28449,1.658203125,0.263671875,3,1,7,29,8,874.54833984375,259.920867919922,0,1,objects,small,1,1,objects,P,big,VS,O,150,E09,625.884765625,0.5,0.125,-0.375,0.0,1.0,1.0,0.0
0,1,0,28452,2.376953125,0.224609375,4,1,6,24,11,749.946411132812,644.269165039062,0,1,faces,male,1,1,objects,P,big,VS,O,150,E09,625.884765625,1.0,0.25,-0.25,0.5,1.0,1.0,0.0
0,1,0,28518,0.62109375,0.265625,2,1,3,9,3,594.536010742188,910.295654296875,0,1,faces,male,0,1,faces,A,male,EX,F,153,E09,638.482421875,0.0,0.0,-0.5,-0.5,0.0,0.0,1.0
0,1,0,28519,1.708984375,0.193359375,3,1,11,67,4,1240.51428222656,401.840911865234,0,1,faces,female,0,1,faces,A,male,EX,F,153,E09,638.482421875,0.25,0.125,-0.375,-0.25,0.0,0.0,1.0
0,1,1,28520,1.939453125,0.267578125,4,1,10,66,5,1280.76184082031,357.2021484375,0,1,faces,male,0,1,faces,A,male,EX,F,153,E09,638.482421875,0.5,0.25,-0.25,0.0,0.0,0.0,1.0
0,1,0,28522,2.45703125,0.494140625,5,0,6,49,7,1070.35314941406,454.009460449219,0,1,faces,female,0,1,faces,A,male,EX,F,153,E09,638.482421875,0.75,0.375,-0.125,0.25,0.0,0.0,1.0
0,1,1,28523,3.02734375,0.11328125,6,0,5,31,8,901.875427246094,463.184783935547,0,1,faces,female,0,1,faces,A,male,EX,F,153,E09,638.482421875,1.0,0.5,0.0,0.5,0.0,0.0,1.0
0,1,0,28712,0.576171875,0.291015625,2,1,4,21,3,745.648681640625,332.304992675781,0,1,faces,male,1,1,faces,P,female,VS,I,161,E09,672.076171875,0.0,0.0,-0.5,-0.5,1.0,1.0,0.0
0,1,0,28713,0.9453125,0.21484375,3,1,13,65,4,1223.15380859375,229.745010375977,0,1,faces,male,1,1,faces,P,female,VS,I,161,E09,672.076171875,0.2,0.125,-0.375,-0.3,1.0,1.0,0.0
0,1,0,28714,1.185546875,0.146484375,4,1,9,56,5,1167.45043945312,223.100936889648,0,1,faces,male,1,1,faces,P,female,VS,I,161,E09,672.076171875,0.4,0.25,-0.25,-0.09999999999999998,1.0,1.0,0.0
0,1,0,28739,0.607421875,0.1953125,2,1,1,2,2,556.143371582031,225.033843994141,0,1,objects,small,0,1,objects,A,small,EX,O,162,E09,676.275390625,0.0,0.0,-0.5,-0.5,0.0,0.0,1.0
0,1,1,28740,0.873046875,0.12890625,3,1,5,28,3,825.293640136719,135.986541748047,0,1,faces,male,0,1,objects,A,small,EX,O,162,E09,676.275390625,0.2,0.125,-0.375,-0.3,0.0,0.0,1.0
1,1,1,28742,1.361328125,0.150390625,4,1,13,65,5,1283.22705078125,208.393615722656,0,1,faces,female,0,1,objects,A,small,EX,O,162,E09,676.275390625,0.4,0.25,-0.25,-0.09999999999999998,0.0,0.0,1.0
0,1,0,28745,2.2578125,0.244140625,5,0,3,18,8,670.781616210938,920.072998046875,0,1,faces,female,0,1,objects,A,small,EX,O,162,E09,676.275390625,0.6,0.375,-0.125,0.09999999999999998,0.0,0.0,1.0
0,1,0,28747,3.80078125,0.12890625,7,0,7,39,10,992.174194335938,309.027008056641,0,1,faces,male,0,1,objects,A,small,EX,O,162,E09,676.275390625,1.0,0.625,0.125,0.5,0.0,0.0,1.0
0,1,0,28765,0.560546875,0.16015625,2,1,4,33,2,822.365966796875,675.238159179688,0,1,faces,male,0,1,faces,A,male,EX,I,163,E09,680.474609375,0.0,0.0,-0.5,-0.5,0.0,0.0,1.0
0,1,0,28766,0.755859375,0.158203125,3,1,1,24,3,770.366516113281,667.789611816406,0,1,faces,male,0,1,faces,A,male,EX,I,163,E09,680.474609375,0.25,0.125,-0.375,-0.25,0.0,0.0,1.0
0,1,0,28768,1.255859375,0.326171875,5,0,2,28,5,858.232116699219,167.75666809082,0,1,objects,small,0,1,faces,A,male,EX,I,163,E09,680.474609375,0.75,0.375,-0.125,0.25,0.0,0.0,1.0
0,1,0,28771,2.3359375,0.533203125,6,0,7,48,8,1057.97424316406,362.905883789062,0,1,faces,male,0,1,faces,A,male,EX,I,163,E09,680.474609375,1.0,0.5,0.0,0.5,0.0,0.0,1.0
0,1,0,28861,0.6875,0.10546875,2,1,13,51,4,1066.02392578125,650.228515625,0,1,faces,male,1,1,faces,P,male,VS,I,167,E09,697.271484375,0.0,0.0,-0.5,-0.5,1.0,1.0,0.0
0,1,0,28863,1.017578125,0.2734375,3,1,6,27,6,731.672485351562,956.763732910156,0,1,faces,female,1,1,faces,P,male,VS,I,167,E09,697.271484375,0.25,0.125,-0.375,-0.25,1.0,1.0,0.0
0,1,0,28864,1.3359375,0.234375,4,1,4,17,7,614.418701171875,840.664489746094,0,1,faces,male,1,1,faces,P,male,VS,I,167,E09,697.271484375,0.5,0.25,-0.25,0.0,1.0,1.0,0.0
0,1,1,28865,1.65234375,0.109375,5,0,14,70,8,1303.88732910156,782.261596679688,0,1,faces,male,1,1,faces,P,male,VS,I,167,E09,697.271484375,0.75,0.375,-0.125,0.25,1.0,1.0,0.0
0,1,1,28867,2.013671875,0.1796875,6,0,2,5,10,531.484619140625,557.941589355469,0,1,faces,female,1,1,faces,P,male,VS,I,167,E09,697.271484375,1.0,0.5,0.0,0.5,1.0,1.0,0.0
0,1,0,28928,0.501953125,0.166015625,2,1,1,1,3,597.405822753906,169.687393188477,0,1,faces,male,0,1,faces,A,male,EX,F,170,E09,709.869140625,0.0,0.0,-0.5,-0.5,0.0,0.0,1.0
0,1,0,28931,1.224609375,0.263671875,3,1,6,38,6,975.597900390625,190.701919555664,0,1,faces,male,0,1,faces,A,male,EX,F,170,E09,709.869140625,0.16666666666666666,0.125,-0.375,-0.33333333333333337,0.0,0.0,1.0
0,1,0,28933,1.73046875,0.443359375,4,1,12,74,8,1401.47985839844,214.57551574707,0,1,faces,female,0,1,faces,A,male,EX,F,170,E09,709.869140625,0.3333333333333333,0.25,-0.25,-0.16666666666666669,0.0,0.0,1.0
0,1,0,28934,2.23828125,0.16796875,5,0,14,78,9,1310.7216796875,643.865295410156,0,1,faces,female,0,1,faces,A,male,EX,F,170,E09,709.869140625,0.5,0.375,-0.125,0.0,0.0,0.0,1.0
1,1,0,28936,2.642578125,0.1640625,6,0,7,43,11,969.443725585938,708.635803222656,0,1,faces,female,0,1,faces,A,male,EX,F,170,E09,709.869140625,0.6666666666666666,0.5,0.0,0.16666666666666663,0.0,0.0,1.0
0,1,1,28937,2.873046875,0.30859375,7,0,2,8,12,514.831115722656,825.767456054688,0,1,objects,big,0,1,faces,A,male,EX,F,170,E09,709.869140625,0.8333333333333334,0.625,0.125,0.33333333333333337,0.0,0.0,1.0
0,1,0,28940,3.619140625,0.1796875,8,0,8,53,15,1080.75854492188,817.238464355469,0,1,faces,male,0,1,faces,A,male,EX,F,170,E09,709.869140625,1.0,0.75,0.25,0.5,0.0,0.0,1.0
0,1,0,28998,0.630859375,0.181640625,2,1,4,12,3,684.787353515625,296.075714111328,0,1,faces,female,1,1,faces,P,female,VS,F,173,E09,722.466796875,0.0,0.0,-0.5,-0.5,1.0,1.0,0.0
0,1,0,28999,0.8359375,0.212890625,3,1,3,11,4,680.139831542969,214.833190917969,0,1,faces,male,1,1,faces,P,female,VS,F,173,E09,722.466796875,0.2,0.125,-0.375,-0.3,1.0,1.0,0.0
0,1,0,29000,1.125,0.224609375,4,1,12,56,5,1177.14343261719,207.201934814453,0,1,faces,male,1,1,faces,P,female,VS,F,173,E09,722.466796875,0.4,0.25,-0.25,-0.09999999999999998,1.0,1.0,0.0
0,1,0,29003,1.642578125,0.2421875,5,0,5,14,8,669.619934082031,541.388000488281,0,1,objects,big,1,1,faces,P,female,VS,F,173,E09,722.466796875,0.6,0.375,-0.125,0.09999999999999998,1.0,1.0,0.0
0,1,0,29004,1.93359375,0.337890625,6,0,1,7,9,565.30615234375,714.215637207031,0,1,faces,female,1,1,faces,P,female,VS,F,173,E09,722.466796875,0.8,0.5,0.0,0.30000000000000004,1.0,1.0,0.0
0,1,0,29005,2.3515625,0.259765625,7,0,10,53,10,1091.07568359375,828.370300292969,0,1,faces,male,1,1,faces,P,female,VS,F,173,E09,722.466796875,1.0,0.625,0.125,0.5,1.0,1.0,0.0
1,1,0,29125,1.1796875,0.138671875,2,1,1,13,6,705.3662109375,442.975311279297,0,1,objects,big,1,1,objects,P,small,VS,O,178,E09,743.462890625,0.0,0.0,-0.5,-0.5,1.0,1.0,0.0
0,1,0,29126,1.3984375,0.357421875,3,1,13,56,7,1151.21740722656,239.722137451172,0,1,faces,female,1,1,objects,P,small,VS,O,178,E09,743.462890625,1.0,0.125,-0.375,0.5,1.0,1.0,0.0
0,1,0,29187,0.70703125,0.169921875,2,1,9,44,4,977.981506347656,853.96875,0,1,faces,female,1,1,faces,P,female,VS,I,181,E09,756.060546875,0.0,0.0,-0.5,-0.5,1.0,1.0,0.0
0,1,0,29275,2.10546875,0.328125,2,1,12,65,4,1299.56970214844,266.516754150391,0,1,faces,female,0,1,objects,A,small,EX,O,184,E09,768.658203125,0.0,0.0,-0.5,-0.5,0.0,0.0,1.0
0,1,0,29277,2.708984375,0.29296875,3,1,5,28,6,887.098876953125,180.469100952148,0,1,faces,male,0,1,objects,A,small,EX,O,184,E09,768.658203125,0.5,0.125,-0.375,0.0,0.0,0.0,1.0
0,1,1,29279,3.349609375,0.212890625,4,1,4,22,8,802.714538574219,489.010498046875,0,1,objects,big,0,1,objects,A,small,EX,O,184,E09,768.658203125,1.0,0.25,-0.25,0.5,0.0,0.0,1.0
1,1,0,29316,0.650390625,0.1640625,2,1,14,69,3,1233.26501464844,628.096008300781,0,1,faces,female,1,1,faces,P,female,VS,F,186,E09,777.056640625,0.0,0.0,-0.5,-0.5,1.0,1.0,0.0
0,1,0,29319,1.396484375,0.255859375,3,1,4,18,6,665.448303222656,972.947692871094,0,1,objects,big,1,1,faces,P,female,VS,F,186,E09,777.056640625,1.0,0.125,-0.375,0.5,1.0,1.0,0.0
0,1,1,29455,1.287109375,0.19140625,2,1,10,56,8,1128.90490722656,264.219940185547,0,1,faces,male,0,1,faces,A,male,EX,I,197,E09,823.248046875,0.0,0.0,-0.5,-0.5,0.0,0.0,1.0
0,1,0,29458,3.296875,0.236328125,3,1,11,57,11,1112.61022949219,305.485931396484,0,1,faces,male,0,1,faces,A,male,EX,I,197,E09,823.248046875,0.5,0.125,-0.375,0.0,0.0,0.0,1.0
0,1,0,29459,3.578125,0.26953125,4,1,4,31,12,811.419311523438,392.7685546875,0,1,faces,male,0,1,faces,A,male,EX,I,197,E09,823.248046875,1.0,0.25,-0.25,0.5,0.0,0.0,1.0
0,1,1,29524,1.333984375,0.20703125,2,1,5,13,4,631.578063964844,394.150604248047,0,1,objects,big,0,1,faces,A,female,EX,I,200,E09,835.845703125,0.0,0.0,-0.5,-0.5,0.0,0.0,1.0
0,1,0,29526,1.775390625,0.1953125,3,1,2,4,6,540.518798828125,392.693817138672,0,1,faces,female,0,1,faces,A,female,EX,I,200,E09,835.845703125,0.5,0.125,-0.375,0.0,0.0,0.0,1.0
0,1,1,29530,2.833984375,0.43359375,4,1,7,38,10,960.993591308594,204.276397705078,0,1,objects,small,0,1,faces,A,female,EX,I,200,E09,835.845703125,1.0,0.25,-0.25,0.5,0.0,0.0,1.0
0,1,0,29553,0.83203125,0.330078125,2,1,11,61,4,1176.52416992188,714.102416992188,0,1,objects,small,0,1,faces,A,female,EX,F,201,E09,840.044921875,0.0,0.0,-0.5,-0.5,0.0,0.0,1.0
0,1,0,29555,1.416015625,0.21484375,3,1,8,50,6,1051.88513183594,502.834838867188,0,1,faces,male,0,1,faces,A,female,EX,F,201,E09,840.044921875,0.25,0.125,-0.375,-0.25,0.0,0.0,1.0
0,1,1,29556,2.484375,0.169921875,4,1,2,13,7,662.264709472656,402.348968505859,0,1,faces,male,0,1,faces,A,female,EX,F,201,E09,840.044921875,0.5,0.25,-0.25,0.0,0.0,0.0,1.0
0,1,0,29558,3.25390625,0.33203125,5,0,5,21,9,736.351257324219,355.411773681641,0,1,objects,small,0,1,faces,A,female,EX,F,201,E09,840.044921875,0.75,0.375,-0.125,0.25,0.0,0.0,1.0
0,1,0,29559,3.662109375,0.421875,6,0,7,42,10,968.893615722656,605.486755371094,0,1,faces,female,0,1,faces,A,female,EX,F,201,E09,840.044921875,1.0,0.5,0.0,0.5,0.0,0.0,1.0
0,1,1,29719,0.55859375,0.13671875,2,1,1,3,2,557.780578613281,389.370758056641,0,1,faces,male,0,1,faces,A,male,EX,F,209,E09,873.638671875,0.0,0.0,-0.5,-0.5,0.0,0.0,1.0
0,1,1,29725,3.234375,0.19921875,3,1,14,67,8,1239.33605957031,457.010375976562,0,1,faces,male,0,1,faces,A,male,EX,F,209,E09,873.638671875,1.0,0.125,-0.375,0.5,0.0,0.0,1.0
0,1,1,29777,0.642578125,0.18359375,2,1,10,52,3,1099.03503417969,783.100646972656,0,1,faces,female,1,1,objects,P,big,VS,O,211,E09,882.037109375,0.0,0.0,-0.5,-0.5,1.0,1.0,0.0
0,1,1,29779,1.029296875,0.10546875,3,1,9,50,5,1073.16748046875,572.397521972656,0,1,objects,big,1,1,objects,P,big,VS,O,211,E09,882.037109375,0.25,0.125,-0.375,-0.25,1.0,1.0,0.0
0,1,1,29782,1.525390625,0.138671875,4,1,13,71,8,1290.05297851562,890.429138183594,0,1,faces,female,1,1,objects,P,big,VS,O,211,E09,882.037109375,0.5,0.25,-0.25,0.0,1.0,1.0,0.0
0,1,1,29786,2.279296875,0.13671875,5,0,14,72,12,1271.35485839844,952.628479003906,0,1,objects,small,1,1,objects,P,big,VS,O,211,E09,882.037109375,0.75,0.375,-0.125,0.25,1.0,1.0,0.0
0,1,0,29788,2.765625,0.14453125,6,0,6,26,14,740.195861816406,877.295715332031,0,1,faces,female,1,1,objects,P,big,VS,O,211,E09,882.037109375,1.0,0.5,0.0,0.5,1.0,1.0,0.0
0,1,0,29873,0.5546875,0.103515625,2,1,8,51,3,1055.78186035156,611.860229492188,0,1,faces,female,1,1,faces,P,male,VS,I,215,E09,898.833984375,0.0,0.0,-0.5,-0.5,1.0,1.0,0.0
1,1,0,23603,0.375,0.1328125,2,1,5,41,2,950.95361328125,572.575927734375,0,1,faces,male,1,1,objects,P,big,VS,O,2,E12,4.400390625,0.0,0.0,-0.5,-0.5,1.0,1.0,0.0
0,1,0,23605,0.716796875,0.1171875,3,1,2,10,4,626.920715332031,130.689559936523,0,1,faces,male,1,1,objects,P,big,VS,O,2,E12,4.400390625,0.16666666666666666,0.09090909090909091,-0.40909090909090906,-0.33333333333333337,1.0,1.0,0.0
0,1,0,23607,1.037109375,0.203125,4,1,1,5,6,542.168212890625,535.508850097656,0,1,objects,big,1,1,objects,P,big,VS,O,2,E12,4.400390625,0.3333333333333333,0.18181818181818182,-0.3181818181818182,-0.16666666666666669,1.0,1.0,0.0
0,1,0,23608,1.3125,0.291015625,5,0,3,25,7,768.621398925781,745.078674316406,0,1,objects,small,1,1,objects,P,big,VS,O,2,E12,4.400390625,0.5,0.2727272727272727,-0.2272727272727273,0.0,1.0,1.0,0.0
0,1,1,23609,1.6875,0.109375,6,0,15,80,8,1330.06359863281,816.8525390625,0,1,objects,big,1,1,objects,P,big,VS,O,2,E12,4.400390625,0.6666666666666666,0.36363636363636365,-0.13636363636363635,0.16666666666666663,1.0,1.0,0.0
0,1,0,23612,2.380859375,0.146484375,7,0,13,66,11,1255.697265625,332.087005615234,0,1,objects,small,1,1,objects,P,big,VS,O,2,E12,4.400390625,0.8333333333333334,0.45454545454545453,-0.04545454545454547,0.33333333333333337,1.0,1.0,0.0
0,1,1,23616,3.046875,0.173828125,8,0,7,43,15,967.951538085938,736.072448730469,0,1,faces,female,1,1,objects,P,big,VS,O,2,E12,4.400390625,1.0,0.5454545454545454,0.045454545454545414,0.5,1.0,1.0,0.0
0,1,1,23644,1.08984375,0.1328125,2,1,3,10,5,630.336669921875,142.494064331055,0,1,faces,male,0,1,faces,A,female,EX,F,3,E12,8.599609375,0.0,0.0,-0.5,-0.5,0.0,0.0,1.0
0,1,0,23647,1.6796875,0.26171875,3,1,13,74,8,1334.46813964844,247.140975952148,0,1,faces,female,0,1,faces,A,female,EX,F,3,E12,8.599609375,0.2,0.09090909090909091,-0.40909090909090906,-0.3,0.0,0.0,1.0
0,1,1,23650,2.341796875,0.12109375,4,1,11,63,11,1163.69848632812,911.799499511719,0,1,faces,female,0,1,faces,A,female,EX,F,3,E12,8.599609375,0.4,0.18181818181818182,-0.3181818181818182,-0.09999999999999998,0.0,0.0,1.0
0,1,1,23653,2.880859375,0.25390625,5,0,6,27,14,739.751892089844,922.332153320312,0,1,faces,female,0,1,faces,A,female,EX,F,3,E12,8.599609375,0.6,0.2727272727272727,-0.2272727272727273,0.09999999999999998,0.0,0.0,1.0
0,1,0,23654,3.1875,0.234375,6,0,8,34,15,838.843994140625,720.33984375,0,1,faces,female,0,1,faces,A,female,EX,F,3,E12,8.599609375,0.8,0.36363636363636365,-0.13636363636363635,0.30000000000000004,0.0,0.0,1.0
0,1,1,23656,3.62109375,0.4140625,7,0,2,5,17,534.980407714844,529.705505371094,0,1,objects,small,0,1,faces,A,female,EX,F,3,E12,8.599609375,1.0,0.45454545454545453,-0.04545454545454547,0.5,0.0,0.0,1.0
0,1,0,23710,0.654296875,0.171875,2,1,7,29,3,843.903869628906,240.262405395508,0,1,faces,male,0,1,faces,A,male,EX,F,5,E12,16.998046875,0.0,0.0,-0.5,-0.5,0.0,0.0,1.0
0,1,1,23711,0.876953125,0.404296875,3,1,3,19,4,722.609252929688,134.368423461914,0,1,objects,big,0,1,faces,A,male,EX,F,5,E12,16.998046875,0.125,0.09090909090909091,-0.40909090909090906,-0.375,0.0,0.0,1.0
0,1,1,23713,1.646484375,0.1796875,4,1,15,75,6,1342.4599609375,346.178497314453,0,1,objects,big,0,1,faces,A,male,EX,F,5,E12,16.998046875,0.25,0.18181818181818182,-0.3181818181818182,-0.25,0.0,0.0,1.0
0,1,0,23715,2.0859375,0.291015625,5,0,14,73,8,1334.82507324219,124.756576538086,0,1,faces,female,0,1,faces,A,male,EX,F,5,E12,16.998046875,0.375,0.2727272727272727,-0.2272727272727273,-0.125,0.0,0.0,1.0
0,1,0,23717,2.62890625,0.1640625,6,0,8,36,10,832.181945800781,922.444396972656,0,1,faces,male,0,1,faces,A,male,EX,F,5,E12,16.998046875,0.5,0.36363636363636365,-0.13636363636363635,0.0,0.0,0.0,1.0
0,1,0,23718,2.83203125,0.23046875,7,0,6,27,11,730.903747558594,927.92041015625,0,1,faces,female,0,1,faces,A,male,EX,F,5,E12,16.998046875,0.625,0.45454545454545453,-0.04545454545454547,0.125,0.0,0.0,1.0
0,1,0,23719,3.10546875,0.193359375,8,0,5,26,12,725.855834960938,836.29736328125,0,1,faces,female,0,1,faces,A,male,EX,F,5,E12,16.998046875,0.75,0.5454545454545454,0.045454545454545414,0.25,0.0,0.0,1.0
0,1,1,23721,3.48828125,0.169921875,9,0,10,40,14,938.795959472656,451.139953613281,0,1,faces,male,0,1,faces,A,male,EX,F,5,E12,16.998046875,0.875,0.6363636363636364,0.13636363636363635,0.375,0.0,0.0,1.0
0,1,1,23722,3.732421875,0.109375,10,0,2,13,15,680.713012695312,415.07568359375,0,1,objects,small,0,1,faces,A,male,EX,F,5,E12,16.998046875,1.0,0.7272727272727273,0.2272727272727273,0.5,0.0,0.0,1.0
0,1,1,23743,0.712890625,0.15234375,2,1,2,8,4,585.116333007812,849.222534179688,0,1,faces,female,1,1,faces,P,male,VS,I,6,E12,21.197265625,0.0,0.0,-0.5,-0.5,1.0,1.0,0.0
0,1,0,23745,1.18359375,0.130859375,3,1,8,44,6,959.110961914062,853.197875976562,0,1,faces,female,1,1,faces,P,male,VS,I,6,E12,21.197265625,0.09090909090909091,0.09090909090909091,-0.40909090909090906,-0.40909090909090906,1.0,1.0,0.0
0,1,0,23746,1.3671875,0.123046875,4,1,10,52,7,1051.18115234375,763.402893066406,0,1,faces,female,1,1,faces,P,male,VS,I,6,E12,21.197265625,0.18181818181818182,0.18181818181818182,-0.3181818181818182,-0.3181818181818182,1.0,1.0,0.0
0,1,0,23747,1.525390625,0.134765625,5,0,11,53,8,1061.14245605469,812.830200195312,0,1,faces,male,1,1,faces,P,male,VS,I,6,E12,21.197265625,0.2727272727272727,0.2727272727272727,-0.2272727272727273,-0.2272727272727273,1.0,1.0,0.0
0,1,1,23750,2.072265625,0.123046875,7,0,9,48,11,1071.07702636719,324.787384033203,0,1,faces,male,1,1,faces,P,male,VS,I,6,E12,21.197265625,0.45454545454545453,0.45454545454545453,-0.04545454545454547,-0.04545454545454547,1.0,1.0,0.0
0,1,0,23776,0.478515625,0.10546875,2,1,6,16,2,683.768981933594,745.251281738281,0,1,faces,male,1,1,objects,P,big,VS,O,7,E12,25.396484375,0.0,0.0,-0.5,-0.5,1.0,1.0,0.0
0,1,0,23777,0.67578125,0.142578125,3,1,2,2,3,525.857238769531,248.86344909668,0,1,faces,male,1,1,objects,P,big,VS,O,7,E12,25.396484375,0.2,0.09090909090909091,-0.40909090909090906,-0.3,1.0,1.0,0.0
0,1,0,23778,0.87890625,0.16796875,4,1,3,4,4,555.605895996094,435.438903808594,0,1,objects,big,1,1,objects,P,big,VS,O,7,E12,25.396484375,0.4,0.18181818181818182,-0.3181818181818182,-0.09999999999999998,1.0,1.0,0.0
0,1,0,23779,1.0859375,0.126953125,5,0,4,5,5,550.506652832031,521.604248046875,0,1,faces,female,1,1,objects,P,big,VS,O,7,E12,25.396484375,0.6,0.2727272727272727,-0.2272727272727273,0.09999999999999998,1.0,1.0,0.0
0,1,0,23780,1.306640625,0.203125,6,0,15,80,6,1325.34313964844,799.473754882812,0,1,faces,male,1,1,objects,P,big,VS,O,7,E12,25.396484375,0.8,0.36363636363636365,-0.13636363636363635,0.30000000000000004,1.0,1.0,0.0
0,1,0,23781,1.55078125,0.22265625,7,0,12,71,7,1235.59448242188,830.570678710938,0,1,objects,small,1,1,objects,P,big,VS,O,7,E12,25.396484375,1.0,0.45454545454545453,-0.04545454545454547,0.5,1.0,1.0,0.0
0,1,0,23909,0.658203125,0.158203125,2,1,9,55,3,1146.29382324219,116.961585998535,0,1,faces,female,1,1,faces,P,female,VS,I,11,E12,42.193359375,0.0,0.0,-0.5,-0.5,1.0,1.0,0.0
0,1,0,23910,0.96484375,0.169921875,3,1,4,29,4,864.352844238281,221.354904174805,0,1,faces,male,1,1,faces,P,female,VS,I,11,E12,42.193359375,0.16666666666666666,0.09090909090909091,-0.40909090909090906,-0.33333333333333337,1.0,1.0,0.0
0,1,0,23911,1.208984375,0.142578125,4,1,10,57,5,1151.255859375,335.504547119141,0,1,faces,male,1,1,faces,P,female,VS,I,11,E12,42.193359375,0.3333333333333333,0.18181818181818182,-0.3181818181818182,-0.16666666666666669,1.0,1.0,0.0
0,1,1,23914,1.771484375,0.11328125,5,0,13,69,8,1252.61499023438,633.473571777344,0,1,faces,female,1,1,faces,P,female,VS,I,11,E12,42.193359375,0.5,0.2727272727272727,-0.2272727272727273,0.0,1.0,1.0,0.0
0,1,0,23915,1.94921875,0.1328125,6,0,11,62,9,1163.8876953125,852.422119140625,0,1,faces,male,1,1,faces,P,female,VS,I,11,E12,42.193359375,0.6666666666666666,0.36363636363636365,-0.13636363636363635,0.16666666666666663,1.0,1.0,0.0
0,1,0,23916,2.123046875,0.228515625,7,0,12,63,10,1132.421875,931.946716308594,0,1,faces,female,1,1,faces,P,female,VS,I,11,E12,42.193359375,0.8333333333333334,0.45454545454545453,-0.04545454545454547,0.33333333333333337,1.0,1.0,0.0
0,1,0,23918,2.603515625,0.134765625,8,0,2,15,12,690.947082519531,601.846923828125,0,1,faces,female,1,1,faces,P,female,VS,I,11,E12,42.193359375,1.0,0.5454545454545454,0.045454545454545414,0.5,1.0,1.0,0.0
0,1,1,24033,0.771484375,0.13671875,2,1,2,14,3,654.145568847656,565.819763183594,0,1,faces,male,0,1,objects,A,small,EX,O,15,E12,58.990234375,0.0,0.0,-0.5,-0.5,0.0,0.0,1.0
0,1,1,24035,1.119140625,0.14453125,3,1,3,15,5,645.83447265625,652.142395019531,0,1,faces,female,0,1,objects,A,small,EX,O,15,E12,58.990234375,0.1,0.09090909090909091,-0.40909090909090906,-0.4,0.0,0.0,1.0
0,1,1,24037,1.501953125,0.119140625,4,1,1,8,7,555.909851074219,835.669250488281,0,1,faces,female,0,1,objects,A,small,EX,O,15,E12,58.990234375,0.2,0.18181818181818182,-0.3181818181818182,-0.3,0.0,0.0,1.0
1,1,0,24039,2.04296875,0.111328125,5,0,5,18,9,696.93603515625,919.0703125,0,1,faces,female,0,1,objects,A,small,EX,O,15,E12,58.990234375,0.3,0.2727272727272727,-0.2272727272727273,-0.2,0.0,0.0,1.0
0,1,0,24040,2.185546875,0.17578125,6,0,7,27,10,731.447937011719,935.082824707031,0,1,faces,female,0,1,objects,A,small,EX,O,15,E12,58.990234375,0.4,0.36363636363636365,-0.13636363636363635,-0.09999999999999998,0.0,0.0,1.0
0,1,0,24042,2.77734375,0.23046875,8,0,4,17,12,637.232299804688,831.009948730469,0,1,faces,male,0,1,objects,A,small,EX,O,15,E12,58.990234375,0.6,0.5454545454545454,0.045454545454545414,0.09999999999999998,0.0,0.0,1.0
0,1,0,24043,3.0859375,0.28515625,9,0,11,53,13,1052.24108886719,840.596130371094,0,1,faces,male,0,1,objects,A,small,EX,O,15,E12,58.990234375,0.7,0.6363636363636364,0.13636363636363635,0.19999999999999996,0.0,0.0,1.0
0,1,0,24044,3.427734375,0.1484375,10,0,9,42,14,919.468627929688,650.24169921875,0,1,objects,small,0,1,objects,A,small,EX,O,15,E12,58.990234375,0.8,0.7272727272727273,0.2272727272727273,0.30000000000000004,0.0,0.0,1.0
0,1,0,24045,3.62109375,0.16796875,11,0,8,33,15,847.650451660156,636.4697265625,0,1,objects,big,0,1,objects,A,small,EX,O,15,E12,58.990234375,0.9,0.8181818181818182,0.31818181818181823,0.4,0.0,0.0,1.0
0,1,0,24046,3.84375,0.177734375,12,0,10,52,16,1032.96923828125,736.025268554688,0,1,objects,small,0,1,objects,A,small,EX,O,15,E12,58.990234375,1.0,0.9090909090909091,0.40909090909090906,0.5,0.0,0.0,1.0
0,1,0,24063,0.84765625,0.1640625,2,1,7,27,4,744.678039550781,919.887268066406,0,1,faces,male,1,1,faces,P,female,VS,F,16,E12,63.189453125,0.0,0.0,-0.5,-0.5,1.0,1.0,0.0
0,1,0,24064,1.08203125,0.1953125,3,1,10,54,5,1036.07946777344,934.48291015625,0,1,faces,female,1,1,faces,P,female,VS,F,16,E12,63.189453125,0.16666666666666666,0.09090909090909091,-0.40909090909090906,-0.33333333333333337,1.0,1.0,0.0
0,1,0,24066,1.609375,0.205078125,4,1,11,60,7,1163.83654785156,637.307800292969,0,1,faces,female,1,1,faces,P,female,VS,F,16,E12,63.189453125,0.3333333333333333,0.18181818181818182,-0.3181818181818182,-0.16666666666666669,1.0,1.0,0.0
0,1,0,24152,1.33203125,0.189453125,2,1,4,31,6,830.2451171875,465.251403808594,0,1,objects,small,1,1,faces,P,female,VS,F,19,E12,75.787109375,0.0,0.0,-0.5,-0.5,1.0,1.0,0.0
0,1,0,24153,1.560546875,0.140625,3,1,5,32,7,833.185180664062,537.804870605469,0,1,faces,male,1,1,faces,P,female,VS,F,19,E12,75.787109375,0.25,0.09090909090909091,-0.40909090909090906,-0.25,1.0,1.0,0.0
0,1,0,24155,1.904296875,0.19140625,4,1,2,7,9,534.491333007812,733.076110839844,0,1,faces,female,1,1,faces,P,female,VS,F,19,E12,75.787109375,0.5,0.18181818181818182,-0.3181818181818182,0.0,1.0,1.0,0.0
0,1,0,24279,0.677734375,0.146484375,2,1,11,46,4,1075.67370605469,133.649978637695,0,1,faces,female,1,1,faces,P,female,VS,I,23,E12,92.583984375,0.0,0.0,-0.5,-0.5,1.0,1.0,0.0
0,1,1,24305,0.630859375,0.111328125,2,1,1,1,3,562.538635253906,107.634216308594,0,1,faces,male,0,1,faces,A,female,EX,I,24,E12,96.783203125,0.0,0.0,-0.5,-0.5,0.0,0.0,1.0
0,1,0,24307,0.953125,0.166015625,3,1,7,37,5,968.874877929688,116.49129486084,0,1,objects,small,0,1,faces,A,female,EX,I,24,E12,96.783203125,0.14285714285714285,0.09090909090909091,-0.40909090909090906,-0.35714285714285715,0.0,0.0,1.0
0,1,0,24308,1.16015625,0.158203125,4,1,8,46,6,1047.63061523438,131.910736083984,0,1,faces,female,0,1,faces,A,female,EX,I,24,E12,96.783203125,0.2857142857142857,0.18181818181818182,-0.3181818181818182,-0.2142857142857143,0.0,0.0,1.0
0,1,0,24310,1.53515625,0.234375,5,0,12,76,8,1350.22924804688,456.204010009766,0,1,faces,female,0,1,faces,A,female,EX,I,24,E12,96.783203125,0.42857142857142855,0.2727272727272727,-0.2272727272727273,-0.07142857142857145,0.0,0.0,1.0
0,1,0,24312,2.005859375,0.171875,6,0,15,81,10,1331.06298828125,921.415771484375,0,1,objects,big,0,1,faces,A,female,EX,I,24,E12,96.783203125,0.5714285714285714,0.36363636363636365,-0.13636363636363635,0.0714285714285714,0.0,0.0,1.0
0,1,1,24313,2.23046875,0.1875,7,0,14,79,11,1343.38049316406,715.4033203125,0,1,faces,male,0,1,faces,A,female,EX,I,24,E12,96.783203125,0.7142857142857143,0.45454545454545453,-0.04545454545454547,0.2142857142857143,0.0,0.0,1.0
0,1,0,24316,2.923828125,0.16015625,8,0,5,34,14,844.818603515625,772.083435058594,0,1,faces,male,0,1,faces,A,female,EX,I,24,E12,96.783203125,0.8571428571428571,0.5454545454545454,0.045454545454545414,0.3571428571428571,0.0,0.0,1.0
0,1,1,24317,3.146484375,0.119140625,9,0,2,7,15,581.649291992188,732.712158203125,0,1,faces,female,0,1,faces,A,female,EX,I,24,E12,96.783203125,1.0,0.6363636363636364,0.13636363636363635,0.5,0.0,0.0,1.0
0,1,0,24342,2.56640625,0.134765625,3,1,8,53,5,1059.32568359375,823.609924316406,0,1,faces,male,1,1,faces,P,female,VS,F,25,E12,100.982421875,0.0,0.09090909090909091,-0.40909090909090906,-0.5,1.0,1.0,0.0
0,1,0,24343,2.748046875,0.34765625,4,1,5,44,6,951.9208984375,820.799926757812,0,1,faces,male,1,1,faces,P,female,VS,F,25,E12,100.982421875,0.5,0.18181818181818182,-0.3181818181818182,0.0,1.0,1.0,0.0
0,1,1,24345,3.3046875,0.125,5,0,14,77,8,1360.369140625,528.57861328125,0,1,faces,male,1,1,faces,P,female,VS,F,25,E12,100.982421875,1.0,0.2727272727272727,-0.2272727272727273,0.5,1.0,1.0,0.0
1,1,0,24726,1.77734375,0.216796875,2,1,14,74,5,1360.86828613281,211.786239624023,0,1,faces,female,0,1,objects,A,small,EX,O,37,E12,151.373046875,0.0,0.0,-0.5,-0.5,0.0,0.0,1.0
0,1,1,24727,2.072265625,0.15625,3,1,7,37,6,938.2275390625,172.785949707031,0,1,faces,male,0,1,objects,A,small,EX,O,37,E12,151.373046875,0.3333333333333333,0.09090909090909091,-0.40909090909090906,-0.16666666666666669,0.0,0.0,1.0
0,1,0,24732,3.533203125,0.228515625,5,0,12,67,11,1250.17980957031,439.113037109375,0,1,faces,female,0,1,objects,A,small,EX,O,37,E12,151.373046875,1.0,0.2727272727272727,-0.2272727272727273,0.5,0.0,0.0,1.0
0,1,1,24752,0.6015625,0.11328125,2,1,1,1,3,598.125244140625,167.379776000977,0,1,faces,female,0,1,faces,A,female,EX,F,38,E12,155.572265625,0.0,0.0,-0.5,-0.5,0.0,0.0,1.0
0,1,0,24754,0.876953125,0.369140625,3,1,2,2,5,544.258239746094,196.027755737305,0,1,faces,female,0,1,faces,A,female,EX,F,38,E12,155.572265625,0.14285714285714285,0.09090909090909091,-0.40909090909090906,-0.35714285714285715,0.0,0.0,1.0
0,1,1,24755,1.330078125,0.119140625,4,1,11,48,6,1065.21533203125,342.155548095703,0,1,objects,small,0,1,faces,A,female,EX,F,38,E12,155.572265625,0.2857142857142857,0.18181818181818182,-0.3181818181818182,-0.2142857142857143,0.0,0.0,1.0
0,1,0,24758,2.248046875,0.1484375,6,0,5,24,9,764.15771484375,628.770385742188,0,1,faces,male,0,1,faces,A,female,EX,F,38,E12,155.572265625,0.5714285714285714,0.36363636363636365,-0.13636363636363635,0.0714285714285714,0.0,0.0,1.0
0,1,1,24759,2.466796875,0.158203125,7,0,3,7,10,538.277893066406,733.438232421875,0,1,objects,big,0,1,faces,A,female,EX,F,38,E12,155.572265625,0.7142857142857143,0.45454545454545453,-0.04545454545454547,0.2142857142857143,0.0,0.0,1.0
0,1,0,24761,3.1484375,0.3046875,8,0,4,9,12,544.607482910156,915.024353027344,0,1,faces,male,0,1,faces,A,female,EX,F,38,E12,155.572265625,0.8571428571428571,0.5454545454545454,0.045454545454545414,0.3571428571428571,0.0,0.0,1.0
0,1,1,24762,3.529296875,0.13671875,9,0,10,44,13,954.800476074219,806.253784179688,0,1,faces,male,0,1,faces,A,female,EX,F,38,E12,155.572265625,1.0,0.6363636363636364,0.13636363636363635,0.5,0.0,0.0,1.0
0,1,0,24782,0.703125,0.14453125,2,1,5,28,4,857.823974609375,158.98974609375,0,1,objects,big,1,1,faces,P,female,VS,I,39,E12,159.771484375,0.0,0.0,-0.5,-0.5,1.0,1.0,0.0
0,1,0,24783,0.94140625,0.197265625,3,1,1,19,5,730.576782226562,114.305801391602,0,1,faces,female,1,1,faces,P,female,VS,I,39,E12,159.771484375,0.14285714285714285,0.09090909090909091,-0.40909090909090906,-0.35714285714285715,1.0,1.0,0.0
0,1,0,24784,1.216796875,0.193359375,4,1,8,47,6,1055.89306640625,226.781311035156,0,1,faces,female,1,1,faces,P,female,VS,I,39,E12,159.771484375,0.2857142857142857,0.18181818181818182,-0.3181818181818182,-0.2142857142857143,1.0,1.0,0.0
0,1,0,24785,1.4765625,0.197265625,5,0,9,58,7,1163.15844726562,417.439575195312,0,1,faces,male,1,1,faces,P,female,VS,I,39,E12,159.771484375,0.42857142857142855,0.2727272727272727,-0.2272727272727273,-0.07142857142857145,1.0,1.0,0.0
0,1,0,24788,2.037109375,0.134765625,6,0,11,62,10,1183.21118164062,842.55908203125,0,1,objects,big,1,1,faces,P,female,VS,I,39,E12,159.771484375,0.5714285714285714,0.36363636363636365,-0.13636363636363635,0.0714285714285714,1.0,1.0,0.0
0,1,1,24789,2.3046875,0.18359375,7,0,13,70,11,1276.34729003906,725.046264648438,0,1,faces,female,1,1,faces,P,female,VS,I,39,E12,159.771484375,0.7142857142857143,0.45454545454545453,-0.04545454545454547,0.2142857142857143,1.0,1.0,0.0
0,1,0,24879,0.4140625,0.251953125,2,1,11,57,2,1167.67639160156,327.528778076172,0,1,faces,male,1,1,faces,P,female,VS,I,42,E12,172.369140625,0.0,0.0,-0.5,-0.5,1.0,1.0,0.0
0,1,1,24880,0.720703125,0.123046875,3,1,12,73,3,1359.65808105469,181.695755004883,0,1,faces,male,1,1,faces,P,female,VS,I,42,E12,172.369140625,0.125,0.09090909090909091,-0.40909090909090906,-0.375,1.0,1.0,0.0
0,1,0,24882,1.056640625,0.138671875,4,1,13,74,5,1352.99719238281,229.786834716797,0,1,faces,female,1,1,faces,P,female,VS,I,42,E12,172.369140625,0.25,0.18181818181818182,-0.3181818181818182,-0.25,1.0,1.0,0.0
0,1,1,24883,1.28125,0.1640625,5,0,14,79,6,1362.40625,740.794799804688,0,1,faces,male,1,1,faces,P,female,VS,I,42,E12,172.369140625,0.375,0.2727272727272727,-0.2272727272727273,-0.125,1.0,1.0,0.0
0,1,0,24885,1.685546875,0.18359375,6,0,7,35,8,861.198608398438,824.056457519531,0,1,faces,female,1,1,faces,P,female,VS,I,42,E12,172.369140625,0.5,0.36363636363636365,-0.13636363636363635,0.0,1.0,1.0,0.0
0,1,1,24886,1.908203125,0.185546875,7,0,9,44,9,936.177551269531,823.331909179688,0,1,faces,female,1,1,faces,P,female,VS,I,42,E12,172.369140625,0.625,0.45454545454545453,-0.04545454545454547,0.125,1.0,1.0,0.0
0,1,0,24890,2.607421875,0.185546875,8,0,1,1,13,527.343811035156,109.819625854492,0,1,objects,big,1,1,faces,P,female,VS,I,42,E12,172.369140625,0.75,0.5454545454545454,0.045454545454545414,0.25,1.0,1.0,0.0
0,1,0,24908,0.505859375,0.18359375,2,1,6,33,2,832.50390625,657.89794921875,0,1,faces,female,1,1,faces,P,female,VS,F,43,E12,176.568359375,0.0,0.0,-0.5,-0.5,1.0,1.0,0.0
0,1,0,24909,0.76171875,0.205078125,3,1,10,60,3,1158.80688476562,655.806335449219,0,1,faces,male,1,1,faces,P,female,VS,F,43,E12,176.568359375,0.14285714285714285,0.09090909090909091,-0.40909090909090906,-0.35714285714285715,1.0,1.0,0.0
0,1,0,24910,1.046875,0.166015625,4,1,5,27,4,739.528137207031,920.530151367188,0,1,faces,male,1,1,faces,P,female,VS,F,43,E12,176.568359375,0.2857142857142857,0.18181818181818182,-0.3181818181818182,-0.2142857142857143,1.0,1.0,0.0
0,1,1,24913,1.697265625,0.15625,5,0,9,56,7,1113.65075683594,223.690460205078,0,1,faces,female,1,1,faces,P,female,VS,F,43,E12,176.568359375,0.42857142857142855,0.2727272727272727,-0.2272727272727273,-0.07142857142857145,1.0,1.0,0.0
0,1,0,24915,1.994140625,0.259765625,6,0,8,47,9,1053.16320800781,228.592086791992,0,1,faces,male,1,1,faces,P,female,VS,F,43,E12,176.568359375,0.5714285714285714,0.36363636363636365,-0.13636363636363635,0.0714285714285714,1.0,1.0,0.0
0,1,0,24916,2.30078125,0.115234375,7,0,7,38,10,957.2373046875,236.585952758789,0,1,objects,small,1,1,faces,P,female,VS,F,43,E12,176.568359375,0.7142857142857143,0.45454545454545453,-0.04545454545454547,0.2142857142857143,1.0,1.0,0.0
0,1,1,24917,2.4921875,0.1015625,8,0,15,74,11,1321.28881835938,231.038803100586,0,1,faces,female,1,1,faces,P,female,VS,F,43,E12,176.568359375,0.8571428571428571,0.5454545454545454,0.045454545454545414,0.3571428571428571,1.0,1.0,0.0
0,1,0,24920,2.984375,0.21875,9,0,1,12,14,639.288391113281,334.858489990234,0,1,faces,female,1,1,faces,P,female,VS,F,43,E12,176.568359375,1.0,0.6363636363636364,0.13636363636363635,0.5,1.0,1.0,0.0
1,1,0,24963,0.767578125,0.158203125,2,1,2,23,4,772.174743652344,577.999877929688,0,1,faces,male,0,1,faces,A,male,EX,F,45,E12,184.966796875,0.0,0.0,-0.5,-0.5,0.0,0.0,1.0
0,1,0,24964,0.9609375,0.236328125,3,1,3,24,5,776.220947265625,621.615600585938,0,1,faces,female,0,1,faces,A,male,EX,F,45,E12,184.966796875,0.1,0.09090909090909091,-0.40909090909090906,-0.4,0.0,0.0,1.0
0,1,0,24965,1.275390625,0.1328125,4,1,5,36,6,910.094055175781,914.740844726562,0,1,faces,female,0,1,faces,A,male,EX,F,45,E12,184.966796875,0.2,0.18181818181818182,-0.3181818181818182,-0.3,0.0,0.0,1.0
0,1,0,24966,1.447265625,0.185546875,5,0,6,45,7,961.005126953125,915.348327636719,0,1,faces,male,0,1,faces,A,male,EX,F,45,E12,184.966796875,0.3,0.2727272727272727,-0.2272727272727273,-0.2,0.0,0.0,1.0
0,1,1,24967,1.689453125,0.150390625,6,0,13,71,8,1249.97106933594,837.995849609375,0,1,faces,male,0,1,faces,A,male,EX,F,45,E12,184.966796875,0.4,0.36363636363636365,-0.13636363636363635,-0.09999999999999998,0.0,0.0,1.0
0,1,0,24970,2.240234375,0.216796875,7,0,9,55,11,1154.99877929688,142.749526977539,0,1,objects,big,0,1,faces,A,male,EX,F,45,E12,184.966796875,0.5,0.45454545454545453,-0.04545454545454547,0.0,0.0,0.0,1.0
0,1,0,24971,2.525390625,0.15234375,8,0,14,73,12,1361.10083007812,125.399887084961,0,1,objects,big,0,1,faces,A,male,EX,F,45,E12,184.966796875,0.6,0.5454545454545454,0.045454545454545414,0.09999999999999998,0.0,0.0,1.0
0,1,0,24972,2.748046875,0.1640625,9,0,15,75,13,1346.48889160156,369.900543212891,0,1,faces,female,0,1,faces,A,male,EX,F,45,E12,184.966796875,0.7,0.6363636363636364,0.13636363636363635,0.19999999999999996,0.0,0.0,1.0
0,1,0,24975,3.578125,0.296875,12,0,1,6,16,551.11865234375,624.991455078125,0,1,faces,male,0,1,faces,A,male,EX,F,45,E12,184.966796875,1.0,0.9090909090909091,0.40909090909090906,0.5,0.0,0.0,1.0
0,1,1,24993,1.94140625,0.15625,3,1,8,35,4,844.387329101562,813.943115234375,0,1,faces,male,1,1,objects,P,big,VS,O,46,E12,189.166015625,0.0,0.09090909090909091,-0.40909090909090906,-0.5,1.0,1.0,0.0
0,1,1,24995,2.4140625,0.2578125,4,1,10,45,6,941.149169921875,896.275512695312,0,1,objects,small,1,1,objects,P,big,VS,O,46,E12,189.166015625,0.5,0.18181818181818182,-0.3181818181818182,0.0,1.0,1.0,0.0
0,1,0,24998,3.46484375,0.150390625,5,0,15,81,9,1337.04211425781,907.85986328125,0,1,objects,small,1,1,objects,P,big,VS,O,46,E12,189.166015625,1.0,0.2727272727272727,-0.2272727272727273,0.5,1.0,1.0,0.0
0,1,1,25015,0.75,0.15234375,2,1,8,47,3,1070.28503417969,194.364227294922,0,1,objects,big,0,1,faces,A,male,EX,I,47,E12,193.365234375,0.0,0.0,-0.5,-0.5,0.0,0.0,1.0
1,1,0,25018,1.40234375,0.28125,3,1,10,54,6,1058.015625,904.795715332031,0,1,faces,male,0,1,faces,A,male,EX,I,47,E12,193.365234375,0.25,0.09090909090909091,-0.40909090909090906,-0.25,0.0,0.0,1.0
0,1,1,25019,1.740234375,0.107421875,4,1,6,36,7,907.158813476562,893.517944335938,0,1,faces,male,0,1,faces,A,male,EX,I,47,E12,193.365234375,0.5,0.18181818181818182,-0.3181818181818182,0.0,0.0,0.0,1.0
0,1,1,25023,2.958984375,0.158203125,6,0,9,52,11,1060.31298828125,732.806579589844,0,1,faces,female,0,1,faces,A,male,EX,I,47,E12,193.365234375,1.0,0.36363636363636365,-0.13636363636363635,0.5,0.0,0.0,1.0
0,1,0,25044,1.0546875,0.142578125,2,1,2,14,6,648.480895996094,573.21630859375,0,1,faces,female,1,1,faces,P,male,VS,I,48,E12,197.564453125,0.0,0.0,-0.5,-0.5,1.0,1.0,0.0
0,1,0,25046,1.40625,0.1328125,3,1,6,36,8,838.085998535156,916.590270996094,0,1,objects,big,1,1,faces,P,male,VS,I,48,E12,197.564453125,0.25,0.09090909090909091,-0.40909090909090906,-0.25,1.0,1.0,0.0
0,1,0,25047,1.619140625,0.146484375,4,1,15,80,9,1328.30981445312,825.320129394531,0,1,faces,male,1,1,faces,P,male,VS,I,48,E12,197.564453125,0.5,0.18181818181818182,-0.3181818181818182,0.0,1.0,1.0,0.0
0,1,0,25048,1.80859375,0.15234375,5,0,13,71,10,1251.14013671875,816.149475097656,0,1,faces,male,1,1,faces,P,male,VS,I,48,E12,197.564453125,0.75,0.2727272727272727,-0.2272727272727273,0.25,1.0,1.0,0.0
0,1,0,25051,2.37890625,0.208984375,6,0,11,59,13,1155.13598632812,524.250671386719,0,1,faces,female,1,1,faces,P,male,VS,I,48,E12,197.564453125,1.0,0.36363636363636365,-0.13636363636363635,0.5,1.0,1.0,0.0
0,1,1,25066,1.2109375,0.126953125,2,1,4,17,3,673.106140136719,851.06298828125,0,1,faces,female,1,1,faces,P,male,VS,F,49,E12,201.763671875,0.0,0.0,-0.5,-0.5,1.0,1.0,0.0
0,1,0,25070,1.880859375,0.23046875,3,1,12,64,7,1231.10412597656,132.267959594727,0,1,faces,male,1,1,faces,P,male,VS,F,49,E12,201.763671875,0.5,0.09090909090909091,-0.40909090909090906,0.0,1.0,1.0,0.0
0,1,0,25072,2.337890625,0.18359375,4,1,14,75,9,1328.06420898438,354.569183349609,0,1,faces,male,1,1,faces,P,male,VS,F,49,E12,201.763671875,1.0,0.18181818181818182,-0.3181818181818182,0.5,1.0,1.0,0.0
0,1,1,25110,0.693359375,0.16796875,2,1,1,11,4,638.333435058594,201.276214599609,0,1,objects,small,0,1,faces,A,female,EX,F,51,E12,210.162109375,0.0,0.0,-0.5,-0.5,0.0,0.0,1.0
1,1,1,25113,1.46875,0.240234375,3,1,4,34,7,845.506958007812,725.286682128906,0,1,faces,female,0,1,faces,A,female,EX,F,51,E12,210.162109375,0.25,0.09090909090909091,-0.40909090909090906,-0.25,0.0,0.0,1.0
0,1,0,25115,2.296875,0.150390625,4,1,9,48,9,1016.83911132812,388.408386230469,0,1,faces,female,0,1,faces,A,female,EX,F,51,E12,210.162109375,0.5,0.18181818181818182,-0.3181818181818182,0.0,0.0,0.0,1.0
0,1,1,25118,2.8515625,0.171875,6,0,14,75,12,1336.43212890625,327.484771728516,0,1,faces,male,0,1,faces,A,female,EX,F,51,E12,210.162109375,1.0,0.36363636363636365,-0.13636363636363635,0.5,0.0,0.0,1.0
0,1,1,25136,0.4453125,0.15234375,2,1,3,17,2,618.932983398438,805.88525390625,0,1,faces,female,1,1,faces,P,female,VS,I,52,E12,214.361328125,0.0,0.0,-0.5,-0.5,1.0,1.0,0.0
0,1,1,25138,0.771484375,0.123046875,3,1,7,35,4,821.90869140625,824.019592285156,0,1,faces,female,1,1,faces,P,female,VS,I,52,E12,214.361328125,0.25,0.09090909090909091,-0.40909090909090906,-0.25,1.0,1.0,0.0
0,1,0,25140,1.248046875,0.23828125,4,1,12,62,6,1162.54418945312,818.766540527344,0,1,faces,male,1,1,faces,P,female,VS,I,52,E12,214.361328125,0.5,0.18181818181818182,-0.3181818181818182,0.0,1.0,1.0,0.0
1,1,1,25141,1.541015625,0.103515625,5,0,14,78,7,1313.71716308594,653.447814941406,0,1,faces,female,1,1,faces,P,female,VS,I,52,E12,214.361328125,0.75,0.2727272727272727,-0.2272727272727273,0.25,1.0,1.0,0.0
0,1,0,25143,1.830078125,0.146484375,6,0,13,69,9,1265.11254882812,611.982971191406,0,1,faces,male,1,1,faces,P,female,VS,I,52,E12,214.361328125,1.0,0.36363636363636365,-0.13636363636363635,0.5,1.0,1.0,0.0
0,1,0,25233,2.150390625,0.15625,3,1,11,48,6,1080.62719726562,293.490905761719,0,1,faces,female,1,1,objects,P,small,VS,O,55,E12,226.958984375,0.0,0.09090909090909091,-0.40909090909090906,-0.5,1.0,1.0,0.0
0,1,1,25234,2.435546875,0.3828125,4,1,13,56,7,1150.03161621094,239.482818603516,0,1,objects,small,1,1,objects,P,small,VS,O,55,E12,226.958984375,0.3333333333333333,0.18181818181818182,-0.3181818181818182,-0.16666666666666669,1.0,1.0,0.0
0,1,0,25236,3.0234375,0.701171875,5,0,12,55,9,1143.34350585938,152.111236572266,0,1,objects,big,1,1,objects,P,small,VS,O,55,E12,226.958984375,0.6666666666666666,0.2727272727272727,-0.2272727272727273,0.16666666666666663,1.0,1.0,0.0
0,1,1,25237,3.779296875,0.13671875,6,0,9,38,10,948.703247070312,208.913208007812,0,1,faces,male,1,1,objects,P,small,VS,O,55,E12,226.958984375,1.0,0.36363636363636365,-0.13636363636363635,0.5,1.0,1.0,0.0
0,1,0,25255,0.80078125,0.126953125,2,1,1,6,5,608.015930175781,686.698181152344,0,1,faces,female,1,1,objects,P,big,VS,O,56,E12,231.158203125,0.0,0.0,-0.5,-0.5,1.0,1.0,0.0
0,1,1,25256,1.05078125,0.158203125,3,1,2,15,6,674.028442382812,602.31396484375,0,1,objects,small,1,1,objects,P,big,VS,O,56,E12,231.158203125,0.25,0.09090909090909091,-0.40909090909090906,-0.25,1.0,1.0,0.0
0,1,1,25258,1.392578125,0.140625,4,1,13,71,8,1232.78564453125,811.347595214844,0,1,faces,female,1,1,objects,P,big,VS,O,56,E12,231.158203125,0.5,0.18181818181818182,-0.3181818181818182,0.0,1.0,1.0,0.0
0,1,0,25261,1.9453125,0.1953125,5,0,11,60,11,1160.54724121094,612.447387695312,0,1,objects,big,1,1,objects,P,big,VS,O,56,E12,231.158203125,0.75,0.2727272727272727,-0.2272727272727273,0.25,1.0,1.0,0.0
0,1,0,25262,2.22265625,0.40234375,6,0,7,42,12,971.475952148438,611.390197753906,0,1,objects,small,1,1,objects,P,big,VS,O,56,E12,231.158203125,1.0,0.36363636363636365,-0.13636363636363635,0.5,1.0,1.0,0.0
0,1,1,25288,1.5234375,0.1328125,3,1,9,58,6,1176.765625,464.281219482422,0,1,faces,female,0,1,faces,A,female,EX,I,57,E12,235.357421875,0.0,0.09090909090909091,-0.40909090909090906,-0.5,0.0,0.0,1.0
0,1,0,25291,2.33984375,0.291015625,5,0,7,31,9,857.538146972656,396.979370117188,0,1,faces,male,0,1,faces,A,female,EX,I,57,E12,235.357421875,0.4,0.2727272727272727,-0.2272727272727273,-0.09999999999999998,0.0,0.0,1.0
0,1,1,25292,2.6875,0.123046875,6,0,3,21,10,728.186279296875,307.504333496094,0,1,faces,female,0,1,faces,A,female,EX,I,57,E12,235.357421875,0.6,0.36363636363636365,-0.13636363636363635,0.09999999999999998,0.0,0.0,1.0
0,1,1,25294,3.0625,0.125,7,0,2,5,12,565.846740722656,527.750793457031,0,1,faces,female,0,1,faces,A,female,EX,I,57,E12,235.357421875,0.8,0.45454545454545453,-0.04545454545454547,0.30000000000000004,0.0,0.0,1.0
0,1,0,25296,3.4453125,0.513671875,8,0,4,24,14,743.486022949219,614.83203125,0,1,faces,female,0,1,faces,A,female,EX,I,57,E12,235.357421875,1.0,0.5454545454545454,0.045454545454545414,0.5,0.0,0.0,1.0
0,1,1,25442,0.564453125,0.193359375,2,1,4,16,2,661.749938964844,712.936706542969,0,1,faces,female,0,1,faces,A,male,EX,I,62,E12,256.353515625,0.0,0.0,-0.5,-0.5,0.0,0.0,1.0
0,1,0,25444,0.96484375,0.15625,3,1,5,25,4,734.914794921875,734.233764648438,0,1,faces,female,0,1,faces,A,male,EX,I,62,E12,256.353515625,0.14285714285714285,0.09090909090909091,-0.40909090909090906,-0.35714285714285715,0.0,0.0,1.0
1,1,0,25447,1.72265625,0.220703125,5,0,11,56,7,1128.36022949219,245.552551269531,0,1,objects,big,0,1,faces,A,male,EX,I,62,E12,256.353515625,0.42857142857142855,0.2727272727272727,-0.2272727272727273,-0.07142857142857145,0.0,0.0,1.0
0,1,0,25449,2.615234375,0.3671875,7,0,12,57,9,1143.92456054688,328.962280273438,0,1,faces,male,0,1,faces,A,male,EX,I,62,E12,256.353515625,0.7142857142857143,0.45454545454545453,-0.04545454545454547,0.2142857142857143,0.0,0.0,1.0
0,1,0,25452,3.52734375,0.287109375,9,0,13,65,12,1251.71704101562,229.504089355469,0,1,objects,big,0,1,faces,A,male,EX,I,62,E12,256.353515625,1.0,0.6363636363636364,0.13636363636363635,0.5,0.0,0.0,1.0
0,1,0,25532,0.580078125,0.123046875,2,1,1,10,4,653.30859375,166.121520996094,0,1,faces,male,1,1,objects,P,small,VS,O,65,E12,268.951171875,0.0,0.0,-0.5,-0.5,1.0,1.0,0.0
0,1,0,25535,1.265625,0.25,3,1,10,52,7,1070.03332519531,725.134948730469,0,1,objects,big,1,1,objects,P,small,VS,O,65,E12,268.951171875,1.0,0.09090909090909091,-0.40909090909090906,0.5,1.0,1.0,0.0
0,1,0,25557,1.056640625,0.259765625,2,1,15,73,4,1316.51220703125,132.667938232422,0,1,faces,female,0,1,objects,A,small,EX,O,66,E12,273.150390625,0.0,0.0,-0.5,-0.5,0.0,0.0,1.0
0,1,1,25559,1.603515625,0.1640625,3,1,12,61,6,1134.1416015625,718.135620117188,0,1,faces,female,0,1,objects,A,small,EX,O,66,E12,273.150390625,0.3333333333333333,0.09090909090909091,-0.40909090909090906,-0.16666666666666669,0.0,0.0,1.0
