refix,pretarget,multifix,urevent,tonset,dur_added,rank,first_rank,stposrel,stposabs,n,x,y,istarget,isdistractor,distractor_cat,ditractor_atr,trial_targetseen,trial_correct,trial_cat,trial_resp,trial_atr,trial_type,trial_cattype,trial_number,trial_subject,trial_bgn_latency
0,1,0,23204,0.494140625,0.162109375,1,1,1,1,2,522.124572753906,161.215850830078,0,1,objects,small,0,1,faces,A,female,VS,I,1,E01,0.201171875
0,1,0,23205,0.728515625,0.2109375,2,1,10,37,3,931.817810058594,173.893768310547,0,1,faces,female,0,1,faces,A,female,VS,I,1,E01,0.201171875
0,1,0,23206,0.978515625,0.283203125,3,1,12,46,4,1039.55004882812,174.363265991211,0,1,faces,female,0,1,faces,A,female,VS,I,1,E01,0.201171875
0,1,0,23207,1.328125,0.119140625,4,1,8,29,5,847.283508300781,264.328094482422,0,1,objects,big,0,1,faces,A,female,VS,I,1,E01,0.201171875
0,1,1,23208,1.525390625,0.125,5,0,2,4,6,578.883605957031,470.820007324219,0,1,objects,small,0,1,faces,A,female,VS,I,1,E01,0.201171875
0,1,0,23210,1.849609375,0.1875,6,0,3,6,8,537.387268066406,657.476989746094,0,1,faces,male,0,1,faces,A,female,VS,I,1,E01,0.201171875
0,1,0,23211,2.12109375,0.32421875,7,0,5,14,9,630.10888671875,566.516174316406,0,1,faces,female,0,1,faces,A,female,VS,I,1,E01,0.201171875
0,1,0,23212,2.51171875,0.181640625,8,0,9,33,10,843.626159667969,640.465576171875,0,1,faces,female,0,1,faces,A,female,VS,I,1,E01,0.201171875
0,1,0,23213,2.755859375,0.162109375,9,0,6,15,11,659.109191894531,663.839721679688,0,1,faces,male,0,1,faces,A,female,VS,I,1,E01,0.201171875
0,1,0,23214,2.986328125,0.1796875,10,0,7,17,12,642.648620605469,851.225952148438,0,1,faces,male,0,1,faces,A,female,VS,I,1,E01,0.201171875
0,1,0,23215,3.234375,0.248046875,11,0,11,45,13,947.062744140625,938.388244628906,0,1,faces,male,0,1,faces,A,female,VS,I,1,E01,0.201171875
0,1,0,23216,3.546875,0.193359375,12,0,13,52,14,1017.26153564453,754.981384277344,0,1,faces,male,0,1,faces,A,female,VS,I,1,E01,0.201171875
0,1,0,23217,3.806640625,0.2109375,13,0,15,80,15,1319.58935546875,826.356567382812,0,1,objects,big,0,1,faces,A,female,VS,I,1,E01,0.201171875
0,1,0,23229,0.642578125,0.19140625,1,1,2,10,3,632.704895019531,147.782821655273,0,1,faces,male,1,1,objects,P,big,VS,O,2,E01,4.400390625
0,1,0,23231,1.0390625,0.138671875,2,1,8,47,5,1057.07434082031,247.931503295898,0,1,faces,male,1,1,objects,P,big,VS,O,2,E01,4.400390625
0,1,1,23232,1.240234375,0.119140625,3,1,13,66,6,1257.83056640625,296.270446777344,0,1,objects,small,1,1,objects,P,big,VS,O,2,E01,4.400390625
1,1,1,23234,1.54296875,0.171875,4,1,11,58,8,1180.22998046875,416.156555175781,1,0,NaN,NaN,1,1,objects,P,big,VS,O,2,E01,4.400390625
0,1,0,23236,1.978515625,0.126953125,5,0,6,42,10,946.085388183594,658.045654296875,0,1,faces,female,1,1,objects,P,big,VS,O,2,E01,4.400390625
2,0,1,23237,2.171875,0.24609375,6,0,11,58,11,1134.94873046875,442.822448730469,1,0,NaN,NaN,1,1,objects,P,big,VS,O,2,E01,4.400390625
1,1,0,23248,0.609375,0.14453125,1,1,4,12,2,636.475891113281,349.615234375,0,1,objects,big,0,1,faces,A,female,EX,F,3,E01,8.599609375
0,1,0,23249,0.80859375,0.271484375,2,1,3,10,3,648.492248535156,173.411041259766,0,1,faces,male,0,1,faces,A,female,EX,F,3,E01,8.599609375
0,1,0,23250,1.142578125,0.220703125,3,1,7,28,4,838.060913085938,164.643020629883,0,1,faces,female,0,1,faces,A,female,EX,F,3,E01,8.599609375
2,1,1,23251,1.435546875,0.171875,4,1,4,12,5,677.897827148438,356.753265380859,0,1,objects,big,0,1,faces,A,female,EX,F,3,E01,8.599609375
0,1,0,23253,1.8515625,0.126953125,5,0,1,4,7,540.394409179688,481.721649169922,0,1,objects,small,0,1,faces,A,female,EX,F,3,E01,8.599609375
0,1,0,23254,2.01953125,0.244140625,6,0,2,5,8,537.822387695312,560.971984863281,0,1,objects,small,0,1,faces,A,female,EX,F,3,E01,8.599609375
0,1,1,23255,2.3359375,0.154296875,7,0,8,34,9,821.911071777344,734.255065917969,0,1,faces,female,0,1,faces,A,female,EX,F,3,E01,8.599609375
0,1,0,23257,2.763671875,0.189453125,8,0,6,27,11,728.608825683594,950.215698242188,0,1,faces,female,0,1,faces,A,female,EX,F,3,E01,8.599609375
0,1,0,23258,3.0234375,0.220703125,9,0,11,63,12,1151.23742675781,949.275634765625,0,1,faces,female,0,1,faces,A,female,EX,F,3,E01,8.599609375
0,1,1,23259,3.314453125,0.169921875,10,0,12,69,13,1294.50366210938,644.347717285156,0,1,objects,small,0,1,faces,A,female,EX,F,3,E01,8.599609375
0,1,0,23261,3.791015625,0.30078125,11,0,9,40,15,947.774963378906,432.984527587891,0,1,faces,male,0,1,faces,A,female,EX,F,3,E01,8.599609375
0,1,0,23275,0.21875,0.212890625,1,1,2,11,1,668.614685058594,283.595672607422,0,1,objects,small,1,1,objects,P,small,VS,O,4,E01,12.798828125
0,1,0,23277,0.6484375,0.26953125,2,1,9,55,3,1180.07849121094,184.82373046875,0,1,faces,male,1,1,objects,P,small,VS,O,4,E01,12.798828125
0,1,0,23278,0.9375,0.125,3,1,10,56,4,1159.45556640625,191.059768676758,0,1,objects,small,1,1,objects,P,small,VS,O,4,E01,12.798828125
0,1,1,23279,1.109375,0.162109375,4,1,8,47,5,1093.4130859375,274.922119140625,0,1,objects,big,1,1,objects,P,small,VS,O,4,E01,12.798828125
0,0,1,23281,1.427734375,0.25390625,5,0,5,39,7,945.576171875,354.586853027344,1,0,NaN,NaN,1,1,objects,P,small,VS,O,4,E01,12.798828125
0,1,0,23295,0.31640625,0.1015625,1,1,1,12,1,644.689453125,325.640899658203,0,1,faces,female,0,1,faces,A,male,EX,F,5,E01,16.998046875
0,1,1,23296,0.47265625,0.263671875,2,1,3,19,2,739.864807128906,150.002990722656,0,1,objects,big,0,1,faces,A,male,EX,F,5,E01,16.998046875
0,1,0,23298,0.9765625,0.15234375,3,1,7,29,4,897.519409179688,245.861434936523,0,1,faces,male,0,1,faces,A,male,EX,F,5,E01,16.998046875
0,1,0,23299,1.1640625,0.1796875,4,1,9,38,5,949.720092773438,260.298614501953,0,1,objects,small,0,1,faces,A,male,EX,F,5,E01,16.998046875
0,1,1,23300,1.4140625,0.126953125,5,0,4,22,6,729.507629394531,426.245452880859,0,1,faces,male,0,1,faces,A,male,EX,F,5,E01,16.998046875
0,1,0,23302,1.80078125,0.234375,6,0,10,40,8,952.260925292969,450.452270507812,0,1,faces,male,0,1,faces,A,male,EX,F,5,E01,16.998046875
0,1,0,23303,2.099609375,0.28125,7,0,11,59,9,1176.1044921875,545.567810058594,0,1,faces,female,0,1,faces,A,male,EX,F,5,E01,16.998046875
0,1,1,23304,2.4375,0.197265625,8,0,13,69,10,1264.61804199219,607.870300292969,0,1,objects,small,0,1,faces,A,male,EX,F,5,E01,16.998046875
0,1,1,23306,2.962890625,0.2578125,9,0,6,27,12,801.778503417969,933.78125,0,1,faces,female,0,1,faces,A,male,EX,F,5,E01,16.998046875
0,1,0,23308,3.486328125,0.28125,10,0,5,26,14,744.556274414062,847.912780761719,0,1,faces,female,0,1,faces,A,male,EX,F,5,E01,16.998046875
0,1,0,23309,3.84375,0.158203125,11,0,15,75,15,1343.31774902344,346.220092773438,0,1,objects,big,0,1,faces,A,male,EX,F,5,E01,16.998046875
0,1,1,23322,0.33984375,0.130859375,1,1,1,3,1,544.145629882812,389.453735351562,0,1,objects,big,1,1,faces,P,male,VS,I,6,E01,21.197265625
0,1,1,23324,0.705078125,0.201171875,2,1,6,29,3,860.457824707031,246.168701171875,0,1,faces,male,1,1,faces,P,male,VS,I,6,E01,21.197265625
0,0,1,23327,1.220703125,0.27734375,3,1,12,56,6,1135.68139648438,266.692962646484,1,0,NaN,NaN,1,1,faces,P,male,VS,I,6,E01,21.197265625
0,1,0,23340,0.3359375,0.212890625,1,1,2,2,1,536.296691894531,235.623748779297,0,1,faces,male,1,0,objects,P,big,VS,O,7,E01,25.396484375
1,1,0,23342,0.900390625,0.23828125,2,1,3,4,3,566.222717285156,448.501892089844,0,1,objects,big,1,0,objects,P,big,VS,O,7,E01,25.396484375
0,1,0,23343,1.181640625,0.1484375,3,1,4,5,4,533.598449707031,549.377868652344,0,1,faces,female,1,0,objects,P,big,VS,O,7,E01,25.396484375
0,1,0,23344,1.400390625,0.125,4,1,6,16,5,681.69775390625,741.74560546875,0,1,faces,male,1,0,objects,P,big,VS,O,7,E01,25.396484375
0,1,0,23345,1.587890625,0.138671875,5,0,8,34,6,881.544494628906,712.669921875,0,1,faces,male,1,0,objects,P,big,VS,O,7,E01,25.396484375
0,1,0,23347,1.931640625,0.154296875,6,0,10,60,8,1170.435546875,656.058471679688,0,1,objects,small,1,0,objects,P,big,VS,O,7,E01,25.396484375
0,1,0,23348,2.14453125,0.16796875,7,0,11,70,9,1261.08605957031,763.75634765625,0,1,objects,big,1,0,objects,P,big,VS,O,7,E01,25.396484375
0,1,0,23349,2.353515625,0.3203125,8,0,12,71,10,1252.11584472656,840.338195800781,0,1,objects,small,1,0,objects,P,big,VS,O,7,E01,25.396484375
0,1,0,23350,2.71875,0.208984375,9,0,13,72,11,1256.35388183594,957.784973144531,0,1,faces,male,1,0,objects,P,big,VS,O,7,E01,25.396484375
0,1,0,23351,2.9921875,0.158203125,10,0,14,79,12,1329.46936035156,746.438537597656,0,1,faces,male,1,0,objects,P,big,VS,O,7,E01,25.396484375
0,1,1,23353,3.349609375,0.125,11,0,5,13,14,665.880615234375,466.71826171875,0,1,faces,female,1,0,objects,P,big,VS,O,7,E01,25.396484375
2,1,0,23355,3.6953125,0.12109375,12,0,3,4,16,528.375793457031,429.786682128906,0,1,objects,big,1,0,objects,P,big,VS,O,7,E01,25.396484375
0,0,0,23356,3.890625,0.724609375,13,0,7,29,17,862.138122558594,254.526885986328,1,0,NaN,NaN,1,0,objects,P,big,VS,O,7,E01,25.396484375
1,1,1,23369,0.3125,0.21484375,1,1,11,54,2,1040.77526855469,899.801818847656,0,1,faces,male,0,1,faces,P,male,VS,F,8,E01,29.595703125
0,1,0,23371,0.7890625,0.1796875,2,1,3,20,4,772.734375,232.931350708008,0,1,objects,small,0,1,faces,P,male,VS,F,8,E01,29.595703125
0,1,0,23372,1.03125,0.158203125,3,1,8,38,5,945.442443847656,249.06689453125,0,1,faces,male,0,1,faces,P,male,VS,F,8,E01,29.595703125
0,1,0,23373,1.232421875,0.208984375,4,1,9,39,6,931.935485839844,357.719635009766,0,1,faces,female,0,1,faces,P,male,VS,F,8,E01,29.595703125
0,1,0,23374,1.49609375,0.201171875,5,0,5,31,7,853.252563476562,433.918579101562,0,1,faces,male,0,1,faces,P,male,VS,F,8,E01,29.595703125
0,1,0,23375,1.7734375,0.1484375,6,0,2,15,8,667.306823730469,672.274658203125,0,1,objects,big,0,1,faces,P,male,VS,F,8,E01,29.595703125
0,1,0,23376,1.990234375,0.185546875,7,0,1,8,9,531.399841308594,872.658325195312,0,1,faces,female,0,1,faces,P,male,VS,F,8,E01,29.595703125
0,1,0,23377,2.2421875,0.208984375,8,0,7,36,10,874.165893554688,940.174865722656,0,1,faces,female,0,1,faces,P,male,VS,F,8,E01,29.595703125
2,1,0,23379,2.595703125,0.130859375,9,0,11,54,12,1097.40856933594,941.866577148438,0,1,faces,male,0,1,faces,P,male,VS,F,8,E01,29.595703125
0,1,0,23380,2.759765625,0.107421875,10,0,12,63,13,1141.40393066406,935.594665527344,0,1,faces,male,0,1,faces,P,male,VS,F,8,E01,29.595703125
0,1,0,23381,2.93359375,0.166015625,11,0,14,70,14,1272.45288085938,712.997009277344,0,1,faces,male,0,1,faces,P,male,VS,F,8,E01,29.595703125
1,1,0,23387,0.3046875,0.111328125,1,1,2,5,1,586.916076660156,524.582580566406,0,1,objects,small,0,1,faces,A,male,EX,I,9,E01,33.794921875
0,1,0,23388,0.486328125,0.263671875,2,1,1,2,2,547.803039550781,257.746246337891,0,1,faces,male,0,1,faces,A,male,EX,I,9,E01,33.794921875
0,1,0,23389,0.791015625,0.1796875,3,1,4,11,3,643.2421875,251.980041503906,0,1,faces,female,0,1,faces,A,male,EX,I,9,E01,33.794921875
2,1,0,23390,1.046875,0.267578125,4,1,2,5,4,547.358764648438,555.911376953125,0,1,objects,small,0,1,faces,A,male,EX,I,9,E01,33.794921875
0,1,0,23391,1.357421875,0.201171875,5,0,3,6,5,540.277282714844,654.376220703125,0,1,faces,male,0,1,faces,A,male,EX,I,9,E01,33.794921875
0,1,1,23392,1.62890625,0.158203125,6,0,7,42,6,971.782043457031,659.327270507812,0,1,faces,male,0,1,faces,A,male,EX,I,9,E01,33.794921875
0,1,0,23395,2.298828125,0.216796875,7,0,8,43,9,943.711547851562,747.583068847656,0,1,faces,male,0,1,faces,A,male,EX,I,9,E01,33.794921875
0,1,1,23396,2.55859375,0.255859375,8,0,6,35,10,827.776611328125,852.226745605469,0,1,faces,female,0,1,faces,A,male,EX,I,9,E01,33.794921875
0,1,0,23398,3.01171875,0.208984375,9,0,10,62,12,1154.94763183594,840.348327636719,0,1,objects,small,0,1,faces,A,male,EX,I,9,E01,33.794921875
0,1,0,23399,3.28125,0.294921875,10,0,13,70,13,1265.78442382812,723.086120605469,0,1,faces,female,0,1,faces,A,male,EX,I,9,E01,33.794921875
0,1,0,23400,3.619140625,0.224609375,11,0,15,78,14,1363.30358886719,641.642333984375,0,1,faces,male,0,1,faces,A,male,EX,I,9,E01,33.794921875
0,1,0,23401,3.9140625,0.443359375,12,0,9,59,15,1168.58984375,539.584289550781,0,1,objects,big,0,1,faces,A,male,EX,I,9,E01,33.794921875
0,1,0,23415,0.673828125,0.1328125,1,1,8,28,3,839.425537109375,164.88720703125,0,1,objects,small,0,1,faces,A,male,VS,I,10,E01,37.994140625
0,1,1,23416,0.884765625,0.15625,2,1,4,11,4,643.376037597656,243.527679443359,0,1,faces,male,0,1,faces,A,male,VS,I,10,E01,37.994140625
0,1,0,23418,1.291015625,0.17578125,3,1,7,22,6,750.412353515625,423.906799316406,0,1,objects,small,0,1,faces,A,male,VS,I,10,E01,37.994140625
0,1,0,23419,1.505859375,0.23046875,4,1,9,31,7,849.890441894531,442.05224609375,0,1,faces,male,0,1,faces,A,male,VS,I,10,E01,37.994140625
0,1,0,23420,1.80078125,0.18359375,5,0,6,15,8,617.383117675781,608.026489257812,0,1,objects,big,0,1,faces,A,male,VS,I,10,E01,37.994140625
0,1,0,23421,2.048828125,0.2265625,6,0,1,7,9,541.074951171875,755.261596679688,0,1,faces,male,0,1,faces,A,male,VS,I,10,E01,37.994140625
0,1,1,23422,2.318359375,0.265625,7,0,2,8,10,542.432556152344,840.93603515625,0,1,faces,male,0,1,faces,A,male,VS,I,10,E01,37.994140625
0,1,0,23425,2.99609375,0.234375,8,0,10,43,13,950.592956542969,752.987609863281,0,1,faces,male,0,1,faces,A,male,VS,I,10,E01,37.994140625
0,1,0,23426,3.29296875,0.150390625,9,0,13,61,14,1141.02416992188,748.578430175781,0,1,faces,female,0,1,faces,A,male,VS,I,10,E01,37.994140625
0,1,0,23427,3.50390625,0.130859375,10,0,15,71,15,1246.46472167969,835.325561523438,0,1,faces,female,0,1,faces,A,male,VS,I,10,E01,37.994140625
0,1,0,23429,3.875,0.224609375,11,0,14,67,17,1230.85424804688,443.009399414062,0,1,faces,female,0,1,faces,A,male,VS,I,10,E01,37.994140625
0,1,0,23450,0.388671875,0.189453125,1,1,9,55,2,1151.45251464844,180.813247680664,0,1,faces,female,1,1,faces,P,female,VS,I,11,E01,42.193359375
0,1,0,23451,0.650390625,0.208984375,2,1,8,39,3,970.197814941406,349.411865234375,0,1,faces,female,1,1,faces,P,female,VS,I,11,E01,42.193359375
1,1,0,23453,1.068359375,0.166015625,3,1,1,14,5,654.766662597656,568.09716796875,1,0,NaN,NaN,1,1,faces,P,female,VS,I,11,E01,42.193359375
0,1,0,23454,2.546875,0.22265625,4,1,2,15,6,651.507019042969,624.505432128906,0,1,faces,female,1,1,faces,P,female,VS,I,11,E01,42.193359375
2,0,1,23455,2.810546875,0.560546875,5,0,1,14,7,641.060485839844,546.004821777344,1,0,NaN,NaN,1,1,faces,P,female,VS,I,11,E01,42.193359375
1,1,0,23470,0.201171875,0.125,1,1,12,47,1,1044.31176757812,253.461029052734,0,1,objects,small,0,1,objects,A,big,VS,O,12,E01,46.392578125
1,1,0,23471,0.40234375,0.13671875,2,1,1,2,2,588.577453613281,268.198089599609,0,1,objects,small,0,1,objects,A,big,VS,O,12,E01,46.392578125
0,1,0,23472,0.59765625,0.18359375,3,1,5,21,3,741.086242675781,326.008636474609,0,1,objects,big,0,1,objects,A,big,VS,O,12,E01,46.392578125
2,1,0,23473,0.84765625,0.111328125,4,1,1,2,4,524.634887695312,253.895446777344,0,1,objects,small,0,1,objects,A,big,VS,O,12,E01,46.392578125
0,1,0,23474,1.03515625,0.189453125,5,0,6,24,5,722.57080078125,620.115417480469,0,1,faces,female,0,1,objects,A,big,VS,O,12,E01,46.392578125
0,1,0,23476,1.423828125,0.134765625,6,0,11,43,7,943.157775878906,730.622253417969,0,1,objects,big,0,1,objects,A,big,VS,O,12,E01,46.392578125
0,1,0,23477,1.623046875,0.16015625,7,0,7,26,8,760.855102539062,871.856140136719,0,1,faces,male,0,1,objects,A,big,VS,O,12,E01,46.392578125
0,1,0,23478,1.8203125,0.126953125,8,0,8,27,9,738.116943359375,945.897766113281,0,1,faces,male,0,1,objects,A,big,VS,O,12,E01,46.392578125
1,1,0,23480,2.16015625,0.1640625,9,0,3,5,11,532.274963378906,549.734741210938,0,1,objects,big,0,1,objects,A,big,VS,O,12,E01,46.392578125
0,1,0,23482,2.560546875,0.20703125,10,0,13,49,13,1038.00622558594,438.267791748047,0,1,faces,male,0,1,objects,A,big,VS,O,12,E01,46.392578125
2,1,0,23483,2.822265625,0.166015625,11,0,12,47,14,1039.90832519531,227.855392456055,0,1,objects,small,0,1,objects,A,big,VS,O,12,E01,46.392578125
0,1,0,23484,3.052734375,0.20703125,12,0,14,64,15,1253.61547851562,174.698928833008,0,1,faces,male,0,1,objects,A,big,VS,O,12,E01,46.392578125
3,1,0,23485,3.345703125,0.30859375,13,0,1,2,16,517.757751464844,276.433959960938,0,1,objects,small,0,1,objects,A,big,VS,O,12,E01,46.392578125
2,1,0,23486,3.728515625,0.18359375,14,0,3,5,17,558.795166015625,507.729858398438,0,1,objects,big,0,1,objects,A,big,VS,O,12,E01,46.392578125
0,1,0,23500,0.259765625,0.169921875,1,1,3,8,1,554.958312988281,854.870971679688,0,1,faces,male,1,1,faces,P,female,VS,I,13,E01,50.591796875
0,1,0,23501,0.494140625,0.23828125,2,1,7,36,2,836.276062011719,914.621887207031,0,1,faces,female,1,1,faces,P,female,VS,I,13,E01,50.591796875
0,1,0,23502,0.791015625,0.21875,3,1,10,45,3,975.994323730469,924.290161132812,0,1,faces,male,1,1,faces,P,female,VS,I,13,E01,50.591796875
0,1,0,23504,1.1640625,0.232421875,4,1,14,70,5,1257.38354492188,733.79736328125,0,1,faces,male,1,1,faces,P,female,VS,I,13,E01,50.591796875
0,1,1,23505,1.470703125,0.125,5,0,9,41,6,991.379638671875,574.542663574219,0,1,faces,male,1,1,faces,P,female,VS,I,13,E01,50.591796875
0,1,0,23507,1.748046875,0.205078125,6,0,6,31,8,823.977783203125,453.493743896484,0,1,faces,male,1,1,faces,P,female,VS,I,13,E01,50.591796875
0,1,0,23508,1.9921875,0.154296875,7,0,5,22,9,745.563171386719,443.23046875,0,1,faces,male,1,1,faces,P,female,VS,I,13,E01,50.591796875
0,0,1,23509,2.18359375,0.330078125,8,0,4,12,10,648.792175292969,357.372131347656,1,0,NaN,NaN,1,1,faces,P,female,VS,I,13,E01,50.591796875
0,1,0,23526,0.58203125,0.15234375,1,1,2,3,3,548.544250488281,311.436584472656,0,1,faces,female,0,1,objects,A,small,VS,O,14,E01,54.791015625
0,1,0,23527,0.84375,0.15234375,2,1,3,13,4,660.091369628906,450.213439941406,0,1,objects,small,0,1,objects,A,small,VS,O,14,E01,54.791015625
0,1,0,23529,1.310546875,0.220703125,3,1,12,62,6,1135.72314453125,791.114562988281,0,1,faces,female,0,1,objects,A,small,VS,O,14,E01,54.791015625
1,1,0,23530,1.58203125,0.310546875,4,1,11,60,7,1170.88000488281,642.595764160156,0,1,objects,small,0,1,objects,A,small,VS,O,14,E01,54.791015625
2,1,1,23532,2.111328125,0.228515625,5,0,11,60,9,1149.76416015625,639.03125,0,1,objects,small,0,1,objects,A,small,VS,O,14,E01,54.791015625
0,1,0,23534,2.55859375,0.2421875,6,0,13,75,11,1375.09521484375,383.854400634766,0,1,faces,male,0,1,objects,A,small,VS,O,14,E01,54.791015625
0,1,0,23535,2.861328125,0.171875,7,0,14,77,12,1384.63696289062,568.650146484375,0,1,faces,male,0,1,objects,A,small,VS,O,14,E01,54.791015625
0,1,0,23536,3.099609375,0.169921875,8,0,15,79,13,1366.3251953125,745.466857910156,0,1,objects,small,0,1,objects,A,small,VS,O,14,E01,54.791015625
0,1,1,23537,3.34765625,0.15625,9,0,9,39,14,940.044250488281,386.930358886719,0,1,objects,big,0,1,objects,A,small,VS,O,14,E01,54.791015625
3,1,0,23539,3.69921875,0.751953125,10,0,11,60,16,1155.8662109375,640.222229003906,0,1,objects,small,0,1,objects,A,small,VS,O,14,E01,54.791015625
0,1,0,23550,0.32421875,0.24609375,1,1,2,14,1,659.968017578125,515.153869628906,0,1,faces,male,0,1,objects,A,small,EX,O,15,E01,58.990234375
0,1,0,23551,0.63671875,0.408203125,2,1,8,33,2,857.180236816406,623.450317382812,0,1,objects,big,0,1,objects,A,small,EX,O,15,E01,58.990234375
0,1,0,23552,1.0859375,0.28125,3,1,9,42,3,952.293090820312,631.776977539062,0,1,objects,small,0,1,objects,A,small,EX,O,15,E01,58.990234375
0,1,0,23553,1.525390625,0.1875,4,1,6,20,4,764.843811035156,262.921661376953,0,1,faces,female,0,1,objects,A,small,EX,O,15,E01,58.990234375
0,1,1,23554,1.787109375,0.154296875,5,0,12,55,5,1136.56494140625,165.714233398438,0,1,faces,female,0,1,objects,A,small,EX,O,15,E01,58.990234375
0,1,1,23556,2.169921875,0.119140625,6,0,15,75,7,1320.6923828125,380.241516113281,0,1,objects,small,0,1,objects,A,small,EX,O,15,E01,58.990234375
0,1,0,23558,2.685546875,0.25,7,0,11,53,9,1050.08654785156,820.912231445312,0,1,faces,male,0,1,objects,A,small,EX,O,15,E01,58.990234375
0,1,0,23559,2.9765625,0.138671875,8,0,14,62,10,1164.76477050781,828.650451660156,0,1,objects,big,0,1,objects,A,small,EX,O,15,E01,58.990234375
0,1,1,23560,3.1953125,0.1796875,9,0,5,18,11,674.153686523438,932.235656738281,0,1,faces,female,0,1,objects,A,small,EX,O,15,E01,58.990234375
0,1,0,23582,0.298828125,0.177734375,1,1,4,12,1,708.846740722656,320.311950683594,0,1,objects,big,1,1,faces,P,female,VS,F,16,E01,63.189453125
0,1,0,23583,0.53125,0.130859375,2,1,5,19,2,727.278015136719,161.494171142578,0,1,objects,big,1,1,faces,P,female,VS,F,16,E01,63.189453125
0,1,0,23584,0.751953125,0.185546875,3,1,9,42,3,918.923583984375,620.752685546875,0,1,faces,male,1,1,faces,P,female,VS,F,16,E01,63.189453125
1,1,1,23585,1.021484375,0.1484375,4,1,13,68,4,1223.34143066406,555.7080078125,1,0,NaN,NaN,1,1,faces,P,female,VS,F,16,E01,63.189453125
0,1,0,23587,1.453125,0.138671875,5,0,15,78,6,1372.40673828125,629.021423339844,0,1,faces,male,1,1,faces,P,female,VS,F,16,E01,63.189453125
2,0,0,23588,1.625,0.216796875,6,0,13,68,7,1264.17907714844,525.941345214844,1,0,NaN,NaN,1,1,faces,P,female,VS,F,16,E01,63.189453125
0,0,0,23589,2.86328125,0.248046875,7,0,11,60,8,1165.45458984375,638.065246582031,0,1,faces,female,1,1,faces,P,female,VS,F,16,E01,63.189453125
3,0,1,23590,3.16015625,0.1484375,8,0,13,68,9,1290.99304199219,540.568481445312,1,0,NaN,NaN,1,1,faces,P,female,VS,F,16,E01,63.189453125
0,1,0,23600,0.255859375,0.18359375,1,1,4,31,1,842.09033203125,467.22265625,0,1,objects,big,0,1,faces,A,female,VS,F,17,E01,67.388671875
0,1,0,23601,0.517578125,0.1953125,2,1,1,6,2,527.56396484375,644.316711425781,0,1,faces,male,0,1,faces,A,female,VS,F,17,E01,67.388671875
0,1,1,23602,0.78125,0.185546875,3,1,3,9,3,546.931945800781,893.284851074219,0,1,faces,male,0,1,faces,A,female,VS,F,17,E01,67.388671875
0,1,0,23604,1.267578125,0.212890625,4,1,11,72,5,1308.439453125,952.881286621094,0,1,faces,male,0,1,faces,A,female,VS,F,17,E01,67.388671875
0,1,0,23605,1.517578125,0.10546875,5,0,15,81,6,1358.93603515625,958.05224609375,0,1,faces,female,0,1,faces,A,female,VS,F,17,E01,67.388671875
0,1,1,23606,1.6953125,0.119140625,6,0,9,51,7,1099.21630859375,673.409362792969,0,1,objects,small,0,1,faces,A,female,VS,F,17,E01,67.388671875
0,1,1,23608,2.01171875,0.1875,7,0,8,50,9,1039.30017089844,565.556335449219,0,1,faces,female,0,1,faces,A,female,VS,F,17,E01,67.388671875
0,1,0,23610,2.41796875,0.103515625,8,0,5,32,11,844.286865234375,560.245422363281,0,1,faces,male,0,1,faces,A,female,VS,F,17,E01,67.388671875
0,1,0,23613,2.90234375,0.1171875,9,0,14,76,14,1356.41259765625,464.9814453125,0,1,faces,female,0,1,faces,A,female,VS,F,17,E01,67.388671875
0,1,1,23614,3.072265625,0.201171875,10,0,13,74,15,1322.21691894531,250.620544433594,0,1,faces,male,0,1,faces,A,female,VS,F,17,E01,67.388671875
0,1,0,23617,3.6796875,0.224609375,11,0,7,47,18,1071.34924316406,261.294403076172,0,1,faces,female,0,1,faces,A,female,VS,F,17,E01,67.388671875
0,1,0,23629,0.423828125,0.12890625,1,1,3,20,3,761.261840820312,243.13362121582,0,1,objects,small,1,1,faces,P,female,VS,F,18,E01,71.587890625
0,1,0,23631,0.9140625,0.232421875,2,1,14,65,5,1306.125,260.96142578125,0,1,faces,female,1,1,faces,P,female,VS,F,18,E01,71.587890625
0,1,0,23632,1.21484375,0.1953125,3,1,10,48,6,1050.69494628906,333.514739990234,0,1,faces,female,1,1,faces,P,female,VS,F,18,E01,71.587890625
0,1,0,23633,1.478515625,0.212890625,4,1,9,41,7,983.602722167969,521.846862792969,0,1,faces,male,1,1,faces,P,female,VS,F,18,E01,71.587890625
0,1,0,23634,1.7578125,0.1484375,5,0,6,24,8,803.429565429688,608.787231445312,0,1,objects,big,1,1,faces,P,female,VS,F,18,E01,71.587890625
0,1,1,23636,2.025390625,0.203125,6,0,2,14,10,656.049682617188,494.143188476562,0,1,faces,female,1,1,faces,P,female,VS,F,18,E01,71.587890625
0,1,0,23638,2.421875,0.154296875,7,0,7,26,12,743.507019042969,868.391235351562,0,1,faces,female,1,1,faces,P,female,VS,F,18,E01,71.587890625
0,0,0,23639,2.64453125,0.265625,8,0,11,53,13,1049.53784179688,862.210876464844,1,0,NaN,NaN,1,1,faces,P,female,VS,F,18,E01,71.587890625
0,1,1,23654,0.224609375,0.158203125,1,1,8,46,1,1061.17199707031,187.642730712891,1,0,NaN,NaN,1,1,faces,P,female,VS,F,19,E01,75.787109375
0,1,0,23673,0.53515625,0.16015625,1,1,3,3,3,595.419250488281,296.738922119141,0,1,objects,small,0,1,faces,A,male,VS,F,20,E01,79.986328125
0,1,0,23674,0.732421875,0.12109375,2,1,2,2,4,540.444946289062,267.648864746094,0,1,faces,male,0,1,faces,A,male,VS,F,20,E01,79.986328125
0,1,0,23675,0.921875,0.275390625,3,1,11,30,5,834.882080078125,330.792907714844,0,1,objects,big,0,1,faces,A,male,VS,F,20,E01,79.986328125
0,1,1,23677,1.390625,0.205078125,4,1,7,20,7,744.027465820312,282.831604003906,0,1,faces,male,0,1,faces,A,male,VS,F,20,E01,79.986328125
0,1,0,23679,1.8359375,0.201171875,5,0,14,65,9,1243.76916503906,277.447387695312,0,1,faces,female,0,1,faces,A,male,VS,F,20,E01,79.986328125
0,1,0,23680,2.107421875,0.197265625,6,0,15,67,10,1264.89709472656,462.859771728516,0,1,faces,male,0,1,faces,A,male,VS,F,20,E01,79.986328125
0,1,0,23681,2.34375,0.126953125,7,0,13,59,11,1178.3173828125,512.599304199219,0,1,objects,big,0,1,faces,A,male,VS,F,20,E01,79.986328125
0,1,0,23683,2.677734375,0.296875,8,0,12,31,13,824.132019042969,424.438232421875,0,1,faces,female,0,1,faces,A,male,VS,F,20,E01,79.986328125
0,1,0,23685,3.26171875,0.27734375,9,0,10,27,15,727.352416992188,890.521301269531,0,1,faces,male,0,1,faces,A,male,VS,F,20,E01,79.986328125
0,1,0,23704,0.302734375,0.166015625,1,1,8,36,1,867.261962890625,937.483520507812,0,1,objects,big,1,1,objects,P,small,VS,O,21,E01,84.185546875
0,1,0,23705,0.537109375,0.240234375,2,1,4,25,2,753.032287597656,731.374877929688,0,1,faces,female,1,1,objects,P,small,VS,O,21,E01,84.185546875
0,1,0,23706,0.82421875,0.119140625,3,1,3,24,3,734.439514160156,640.049865722656,0,1,faces,male,1,1,objects,P,small,VS,O,21,E01,84.185546875
0,1,0,23707,1.01953125,0.12890625,4,1,15,79,4,1324.09484863281,695.42529296875,0,1,faces,male,1,1,objects,P,small,VS,O,21,E01,84.185546875
0,1,0,23709,1.453125,0.134765625,5,0,9,40,6,950.002746582031,426.230041503906,0,1,objects,small,1,1,objects,P,small,VS,O,21,E01,84.185546875
0,1,1,23710,1.63671875,0.1953125,6,0,11,48,7,1058.86535644531,358.527862548828,1,0,NaN,NaN,1,1,objects,P,small,VS,O,21,E01,84.185546875
1,1,0,23724,0.314453125,0.19140625,1,1,8,31,2,869.343933105469,453.036041259766,0,1,objects,small,0,1,objects,A,big,EX,O,22,E01,88.384765625
1,1,0,23726,0.759765625,0.14453125,2,1,4,11,4,642.963134765625,271.005981445312,0,1,faces,female,0,1,objects,A,big,EX,O,22,E01,88.384765625
0,1,0,23728,1.208984375,0.248046875,3,1,6,28,6,854.795043945312,180.576599121094,0,1,objects,big,0,1,objects,A,big,EX,O,22,E01,88.384765625
2,1,0,23729,1.521484375,0.142578125,4,1,4,11,7,654.551879882812,244.442077636719,0,1,faces,female,0,1,objects,A,big,EX,O,22,E01,88.384765625
0,1,0,23731,1.912109375,0.154296875,5,0,2,5,9,531.51953125,579.431274414062,0,1,faces,male,0,1,objects,A,big,EX,O,22,E01,88.384765625
2,1,0,23732,2.15625,0.287109375,6,0,8,31,10,856.856628417969,485.690216064453,0,1,objects,small,0,1,objects,A,big,EX,O,22,E01,88.384765625
0,1,0,23733,2.509765625,0.1875,7,0,13,49,11,1060.73913574219,462.681274414062,0,1,faces,male,0,1,objects,A,big,EX,O,22,E01,88.384765625
0,1,0,23734,2.740234375,0.177734375,8,0,14,50,12,1055.49328613281,554.287109375,0,1,faces,female,0,1,objects,A,big,EX,O,22,E01,88.384765625
0,1,0,23735,3.001953125,0.263671875,9,0,5,17,13,613.903930664062,871.441162109375,0,1,objects,small,0,1,objects,A,big,EX,O,22,E01,88.384765625
0,1,0,23736,3.939453125,0.208984375,10,0,9,36,14,845.119567871094,932.604187011719,0,1,faces,male,0,1,objects,A,big,EX,O,22,E01,88.384765625
0,1,1,23756,0.37109375,0.115234375,1,1,4,18,2,702.576599121094,941.996520996094,0,1,faces,male,1,1,faces,P,female,VS,I,23,E01,92.583984375
0,1,0,23759,0.875,0.201171875,2,1,5,25,5,729.640991210938,726.442749023438,0,1,objects,small,1,1,faces,P,female,VS,I,23,E01,92.583984375
0,1,0,23760,1.140625,0.169921875,3,1,3,14,6,660.097045898438,529.218505859375,0,1,objects,small,1,1,faces,P,female,VS,I,23,E01,92.583984375
0,1,0,23761,1.357421875,0.140625,4,1,8,31,7,833.343811035156,459.541625976562,0,1,faces,female,1,1,faces,P,female,VS,I,23,E01,92.583984375
0,1,0,23762,1.564453125,0.140625,5,0,1,4,8,544.829528808594,439.327392578125,0,1,faces,female,1,1,faces,P,female,VS,I,23,E01,92.583984375
0,1,0,23764,2.05078125,0.1875,6,0,11,46,10,1047.05578613281,169.903778076172,0,1,faces,female,1,1,faces,P,female,VS,I,23,E01,92.583984375
0,1,0,23765,2.287109375,0.11328125,7,0,10,38,11,955.476989746094,248.222625732422,0,1,faces,male,1,1,faces,P,female,VS,I,23,E01,92.583984375
0,1,0,23766,2.46484375,0.1171875,8,0,14,55,12,1171.27966308594,171.210662841797,1,0,NaN,NaN,1,1,faces,P,female,VS,I,23,E01,92.583984375
1,1,0,23777,0.54296875,0.130859375,1,1,3,15,1,629.175537109375,599.836730957031,0,1,objects,small,0,0,faces,A,female,EX,I,24,E01,96.783203125
0,1,0,23779,0.935546875,0.1640625,2,1,1,1,3,517.64111328125,144.489776611328,0,1,faces,male,0,0,faces,A,female,EX,I,24,E01,96.783203125
0,1,0,23780,1.197265625,0.234375,3,1,8,46,4,1016.53942871094,185.307022094727,0,1,faces,female,0,0,faces,A,female,EX,I,24,E01,96.783203125
0,1,0,23781,1.490234375,0.166015625,4,1,9,47,5,1097.75427246094,232.129577636719,0,1,faces,male,0,0,faces,A,female,EX,I,24,E01,96.783203125
0,1,0,23784,2.060546875,0.197265625,5,0,12,76,8,1371.31555175781,467.690643310547,0,1,faces,female,0,0,faces,A,female,EX,I,24,E01,96.783203125
0,1,0,23785,2.337890625,0.1640625,6,0,13,78,9,1383.30236816406,687.042114257812,0,1,objects,small,0,0,faces,A,female,EX,I,24,E01,96.783203125
0,1,0,23786,2.541015625,0.2734375,7,0,14,79,10,1385.92407226562,744.263305664062,0,1,faces,male,0,0,faces,A,female,EX,I,24,E01,96.783203125
0,1,0,23787,2.90234375,0.267578125,8,0,6,35,11,823.595886230469,814.8330078125,0,1,faces,female,0,0,faces,A,female,EX,I,24,E01,96.783203125
2,1,0,23788,3.21875,0.5078125,9,0,3,15,12,659.759887695312,652.702392578125,0,1,objects,small,0,0,faces,A,female,EX,I,24,E01,96.783203125
0,1,0,23789,3.794921875,0.267578125,10,0,2,7,13,526.431457519531,758.872924804688,0,1,faces,female,0,0,faces,A,female,EX,I,24,E01,96.783203125
1,1,0,23805,0.48046875,0.123046875,1,1,4,11,2,636.269653320312,266.505401611328,0,1,faces,female,1,1,faces,P,female,VS,F,25,E01,100.982421875
1,1,1,23807,0.814453125,0.119140625,2,1,6,47,4,1090.47058105469,240.108535766602,0,1,faces,male,1,1,faces,P,female,VS,F,25,E01,100.982421875
2,1,1,23809,1.10546875,0.115234375,3,1,4,11,6,646.43798828125,280.174163818359,0,1,faces,female,1,1,faces,P,female,VS,F,25,E01,100.982421875
0,1,0,23811,1.470703125,0.15625,4,1,12,68,8,1275.54919433594,581.028076171875,0,1,faces,female,1,1,faces,P,female,VS,F,25,E01,100.982421875
2,1,0,23814,2.017578125,0.1328125,5,0,6,47,11,1095.02014160156,268.987091064453,0,1,faces,male,1,1,faces,P,female,VS,F,25,E01,100.982421875
1,1,0,23815,2.234375,0.259765625,6,0,8,53,12,1073.88806152344,852.162353515625,0,1,faces,male,1,1,faces,P,female,VS,F,25,E01,100.982421875
0,1,0,23816,2.55859375,0.197265625,7,0,13,71,13,1257.73193359375,851.126403808594,0,1,faces,female,1,1,faces,P,female,VS,F,25,E01,100.982421875
2,1,0,23817,2.806640625,0.11328125,8,0,8,53,14,1044.62866210938,805.119750976562,0,1,faces,male,1,1,faces,P,female,VS,F,25,E01,100.982421875
0,1,0,23818,2.95703125,0.123046875,9,0,7,52,15,1057.81115722656,770.4609375,0,1,objects,big,1,1,faces,P,female,VS,F,25,E01,100.982421875
0,0,0,23821,3.439453125,0.31640625,10,0,2,6,18,552.580322265625,658.816528320312,1,0,NaN,NaN,1,1,faces,P,female,VS,F,25,E01,100.982421875
0,1,0,23832,0.23828125,0.15625,1,1,2,30,2,877.838684082031,328.400299072266,0,1,faces,male,1,0,faces,P,female,VS,F,26,E01,105.181640625
1,1,1,23835,0.8046875,0.22265625,2,1,9,56,5,1145.86645507812,251.553970336914,0,1,faces,female,1,0,faces,P,female,VS,F,26,E01,105.181640625
1,1,1,23837,1.14453125,0.1328125,3,1,10,66,7,1244.31103515625,321.641906738281,0,1,faces,male,1,0,faces,P,female,VS,F,26,E01,105.181640625
2,1,0,23840,1.59375,0.18359375,4,1,9,56,10,1171.15747070312,278.568145751953,0,1,faces,female,1,0,faces,P,female,VS,F,26,E01,105.181640625
2,1,0,23841,1.837890625,0.181640625,5,0,10,66,11,1283.51684570312,355.869232177734,0,1,faces,male,1,0,faces,P,female,VS,F,26,E01,105.181640625
0,1,1,23842,2.0546875,0.125,6,0,11,68,12,1273.89038085938,501.449737548828,1,0,NaN,NaN,1,0,faces,P,female,VS,F,26,E01,105.181640625
0,0,1,23845,2.7578125,0.205078125,7,0,12,70,15,1296.57653808594,755.591796875,0,1,objects,small,1,0,faces,P,female,VS,F,26,E01,105.181640625
0,0,0,23848,3.208984375,0.150390625,8,0,15,80,18,1344.32690429688,853.459289550781,0,1,faces,male,1,0,faces,P,female,VS,F,26,E01,105.181640625
0,0,0,23849,3.43359375,0.30859375,9,0,4,36,19,858.522644042969,960.469909667969,0,1,faces,female,1,0,faces,P,female,VS,F,26,E01,105.181640625
0,0,0,23850,3.828125,0.22265625,10,0,7,42,20,958.123901367188,648.210876464844,0,1,faces,male,1,0,faces,P,female,VS,F,26,E01,105.181640625
0,1,0,23867,0.3671875,0.115234375,1,1,5,19,2,804.322875976562,167.29411315918,0,1,objects,small,0,1,faces,A,female,VS,I,27,E01,109.380859375
0,1,0,23868,0.5546875,0.1640625,2,1,10,55,3,1155.03295898438,182.630599975586,0,1,faces,male,0,1,faces,A,female,VS,I,27,E01,109.380859375
0,1,0,23869,0.783203125,0.1328125,3,1,7,38,4,988.290893554688,280.819763183594,0,1,objects,small,0,1,faces,A,female,VS,I,27,E01,109.380859375
0,1,0,23870,0.9609375,0.197265625,4,1,9,48,5,1076.24755859375,366.068267822266,0,1,faces,female,0,1,faces,A,female,VS,I,27,E01,109.380859375
0,1,1,23871,1.244140625,0.154296875,5,0,2,14,6,616.27197265625,574.03564453125,0,1,faces,female,0,1,faces,A,female,VS,I,27,E01,109.380859375
0,1,0,23873,1.7421875,0.20703125,6,0,3,16,8,656.444885253906,742.038696289062,0,1,faces,female,0,1,faces,A,female,VS,I,27,E01,109.380859375
0,1,0,23874,2.00390625,0.310546875,7,0,4,17,9,659.566711425781,842.827453613281,0,1,faces,female,0,1,faces,A,female,VS,I,27,E01,109.380859375
0,1,0,23875,2.388671875,0.1796875,8,0,8,42,10,965.131652832031,649.537109375,0,1,objects,big,0,1,faces,A,female,VS,I,27,E01,109.380859375
0,1,0,23876,2.63671875,0.173828125,9,0,14,69,11,1260.26977539062,642.505187988281,0,1,faces,female,0,1,faces,A,female,VS,I,27,E01,109.380859375
0,1,0,23877,2.880859375,0.240234375,10,0,12,62,12,1150.77124023438,839.774047851562,0,1,faces,male,0,1,faces,A,female,VS,I,27,E01,109.380859375
0,1,1,23878,3.166015625,0.10546875,11,0,13,63,13,1156.96838378906,963.170227050781,0,1,faces,male,0,1,faces,A,female,VS,I,27,E01,109.380859375
0,1,0,23880,3.443359375,0.193359375,12,0,15,80,15,1369.59741210938,870.156005859375,0,1,faces,male,0,1,faces,A,female,VS,I,27,E01,109.380859375
0,1,0,23882,3.849609375,0.177734375,13,0,11,58,17,1161.69909667969,437.772796630859,0,1,faces,female,0,1,faces,A,female,VS,I,27,E01,109.380859375
0,1,0,23898,0.349609375,0.142578125,1,1,6,20,2,807.0390625,274.072875976562,0,1,objects,big,0,1,faces,A,female,EX,I,28,E01,113.580078125
0,1,1,23899,0.537109375,0.205078125,2,1,5,19,3,742.60791015625,187.640014648438,0,1,faces,female,0,1,faces,A,female,EX,I,28,E01,113.580078125
0,1,1,23901,0.97265625,0.21484375,3,1,3,11,5,691.648498535156,249.458618164062,0,1,objects,small,0,1,faces,A,female,EX,I,28,E01,113.580078125
0,1,0,23903,1.36328125,0.12109375,4,1,7,21,7,761.20703125,383.752990722656,0,1,faces,female,0,1,faces,A,female,EX,I,28,E01,113.580078125
0,1,1,23904,1.546875,0.171875,5,0,10,40,8,969.328186035156,446.361419677734,0,1,faces,female,0,1,faces,A,female,EX,I,28,E01,113.580078125
0,1,0,23906,1.982421875,0.263671875,6,0,12,59,10,1165.30078125,552.722412109375,0,1,objects,small,0,1,faces,A,female,EX,I,28,E01,113.580078125
0,1,0,23907,2.27734375,0.205078125,7,0,11,51,11,1055.82006835938,643.826782226562,0,1,faces,male,0,1,faces,A,female,EX,I,28,E01,113.580078125
0,1,0,23908,2.546875,0.14453125,8,0,13,70,12,1271.77001953125,783.527709960938,0,1,objects,small,0,1,faces,A,female,EX,I,28,E01,113.580078125
0,1,1,23909,2.73046875,0.353515625,9,0,14,71,13,1297.84509277344,832.489990234375,0,1,objects,big,0,1,faces,A,female,EX,I,28,E01,113.580078125
0,1,0,23912,3.634765625,0.1953125,10,0,4,15,16,647.611328125,621.843811035156,0,1,faces,female,0,1,faces,A,female,EX,I,28,E01,113.580078125
0,1,0,23932,0.220703125,0.16015625,1,1,1,11,1,685.605773925781,263.040954589844,0,1,faces,male,1,1,faces,P,male,VS,I,29,E01,117.779296875
0,1,1,23933,0.451171875,0.138671875,2,1,6,37,2,927.962280273438,176.381805419922,0,1,faces,female,1,1,faces,P,male,VS,I,29,E01,117.779296875
0,1,0,23935,0.763671875,0.173828125,3,1,9,55,4,1199.55114746094,180.002426147461,0,1,faces,male,1,1,faces,P,male,VS,I,29,E01,117.779296875
0,1,0,23936,0.998046875,0.1953125,4,1,13,74,5,1336.04064941406,276.612548828125,0,1,faces,male,1,1,faces,P,male,VS,I,29,E01,117.779296875
0,1,0,23937,1.2421875,0.125,5,0,14,75,6,1392.00866699219,378.409729003906,0,1,objects,big,1,1,faces,P,male,VS,I,29,E01,117.779296875
0,1,0,23938,1.443359375,0.107421875,6,0,8,48,7,1059.40600585938,374.208923339844,0,1,faces,female,1,1,faces,P,male,VS,I,29,E01,117.779296875
0,1,0,23939,1.6171875,0.19921875,7,0,3,22,8,791.37841796875,451.220367431641,0,1,objects,small,1,1,faces,P,male,VS,I,29,E01,117.779296875
0,1,0,23940,1.861328125,0.138671875,8,0,4,32,9,879.199462890625,544.513061523438,0,1,objects,small,1,1,faces,P,male,VS,I,29,E01,117.779296875
0,1,0,23941,2.05859375,0.189453125,9,0,5,34,10,812.257751464844,723.930358886719,0,1,faces,male,1,1,faces,P,male,VS,I,29,E01,117.779296875
0,1,0,23942,2.306640625,0.26171875,10,0,2,16,11,651.463256835938,748.50146484375,0,1,faces,male,1,1,faces,P,male,VS,I,29,E01,117.779296875
0,1,0,23943,2.640625,0.236328125,11,0,7,42,12,959.244750976562,639.0673828125,0,1,faces,female,1,1,faces,P,male,VS,I,29,E01,117.779296875
0,1,0,23944,2.9453125,0.13671875,12,0,12,70,13,1261.6552734375,735.941467285156,0,1,objects,big,1,1,faces,P,male,VS,I,29,E01,117.779296875
0,1,0,23945,3.134765625,0.140625,13,0,11,68,14,1262.39538574219,555.264465332031,0,1,objects,big,1,1,faces,P,male,VS,I,29,E01,117.779296875
0,0,0,23946,3.333984375,0.275390625,14,0,15,76,15,1361.42333984375,433.861541748047,1,0,NaN,NaN,1,1,faces,P,male,VS,I,29,E01,117.779296875
0,1,0,23962,0.619140625,0.16015625,1,1,15,79,4,1313.59619140625,746.274353027344,0,1,faces,male,0,1,faces,A,male,VS,F,30,E01,121.978515625
0,1,0,23963,0.818359375,0.275390625,2,1,13,69,5,1305.93884277344,651.230285644531,0,1,faces,male,0,1,faces,A,male,VS,F,30,E01,121.978515625
0,1,0,23964,1.1484375,0.16796875,3,1,9,59,6,1173.68701171875,551.759582519531,0,1,faces,male,0,1,faces,A,male,VS,F,30,E01,121.978515625
0,1,0,23968,1.931640625,0.279296875,4,1,8,40,10,961.221618652344,415.020324707031,0,1,faces,female,0,1,faces,A,male,VS,F,30,E01,121.978515625
0,1,0,23969,2.23828125,0.18359375,5,0,7,39,11,959.088195800781,345.226989746094,0,1,faces,female,0,1,faces,A,male,VS,F,30,E01,121.978515625
0,1,0,23970,2.48828125,0.142578125,6,0,5,22,12,750.748474121094,451.231689453125,0,1,faces,male,0,1,faces,A,male,VS,F,30,E01,121.978515625
0,1,0,23971,2.703125,0.3125,7,0,4,19,13,749.631225585938,169.009216308594,0,1,faces,female,0,1,faces,A,male,VS,F,30,E01,121.978515625
0,1,1,23972,3.078125,0.11328125,8,0,2,11,14,650.890869140625,270.786010742188,0,1,faces,male,0,1,faces,A,male,VS,F,30,E01,121.978515625
0,1,0,23974,3.541015625,0.337890625,9,0,11,64,16,1259.93762207031,173.703430175781,0,1,objects,big,0,1,faces,A,male,VS,F,30,E01,121.978515625
0,1,0,23988,0.361328125,0.208984375,1,1,2,11,1,705.615356445312,271.551483154297,0,1,faces,female,0,1,faces,A,male,VS,I,31,E01,126.177734375
1,1,0,23990,0.80859375,0.109375,2,1,3,13,3,637.665405273438,444.474395751953,0,1,objects,small,0,1,faces,A,male,VS,I,31,E01,126.177734375
0,1,0,23991,1.013671875,0.263671875,3,1,14,58,4,1115.99609375,432.606292724609,0,1,faces,female,0,1,faces,A,male,VS,I,31,E01,126.177734375
0,1,0,23992,1.341796875,0.123046875,4,1,15,76,5,1312.47644042969,416.196258544922,0,1,faces,female,0,1,faces,A,male,VS,I,31,E01,126.177734375
0,1,0,23993,1.5,0.20703125,5,0,13,57,6,1182.75610351562,356.814270019531,0,1,faces,male,0,1,faces,A,male,VS,I,31,E01,126.177734375
0,1,0,23994,1.783203125,0.2265625,6,0,8,25,7,753.796813964844,693.771118164062,0,1,objects,big,0,1,faces,A,male,VS,I,31,E01,126.177734375
0,1,0,23995,2.083984375,0.20703125,7,0,4,17,8,657.141662597656,876.373840332031,0,1,objects,small,0,1,faces,A,male,VS,I,31,E01,126.177734375
0,1,0,23996,2.36328125,0.263671875,8,0,12,54,9,1079.17834472656,938.452270507812,0,1,faces,male,0,1,faces,A,male,VS,I,31,E01,126.177734375
0,1,0,23998,2.837890625,0.283203125,9,0,1,5,11,546.710266113281,555.960144042969,0,1,faces,male,0,1,faces,A,male,VS,I,31,E01,126.177734375
0,1,1,23999,3.197265625,0.12109375,10,0,9,36,12,888.286437988281,940.824401855469,0,1,faces,female,0,1,faces,A,male,VS,I,31,E01,126.177734375
2,1,0,24002,3.810546875,0.287109375,11,0,3,13,15,625.640441894531,446.776947021484,0,1,objects,small,0,1,faces,A,male,VS,I,31,E01,126.177734375
0,1,0,24011,0.447265625,0.12109375,1,1,5,28,3,853.502380371094,171.659088134766,0,1,faces,female,1,1,objects,P,small,VS,O,32,E01,130.376953125
0,1,0,24012,0.658203125,0.205078125,2,1,11,65,4,1310.43896484375,281.281890869141,0,1,objects,small,1,1,objects,P,small,VS,O,32,E01,130.376953125
0,0,1,24013,0.94140625,0.2890625,3,1,3,22,5,801.869750976562,414.245147705078,1,0,NaN,NaN,1,1,objects,P,small,VS,O,32,E01,130.376953125
0,1,1,24026,0.7734375,0.19140625,1,1,14,80,4,1362.3330078125,884.524475097656,0,1,objects,big,0,1,objects,A,big,VS,O,33,E01,134.576171875
1,1,0,24031,1.814453125,0.240234375,2,1,12,48,9,1034.53112792969,342.316711425781,0,1,objects,small,0,1,objects,A,big,VS,O,33,E01,134.576171875
0,1,0,24032,2.08984375,0.1953125,3,1,10,38,10,965.157958984375,257.421905517578,0,1,faces,female,0,1,objects,A,big,VS,O,33,E01,134.576171875
2,1,0,24033,2.326171875,0.201171875,4,1,12,48,11,1068.61840820312,340.669586181641,0,1,objects,small,0,1,objects,A,big,VS,O,33,E01,134.576171875
0,1,0,24034,2.599609375,0.205078125,5,0,8,32,12,810.502258300781,559.122680664062,0,1,faces,female,0,1,objects,A,big,VS,O,33,E01,134.576171875
0,1,0,24035,2.86328125,0.10546875,6,0,7,24,13,736.368896484375,641.73291015625,0,1,faces,male,0,1,objects,A,big,VS,O,33,E01,134.576171875
0,1,0,24037,3.224609375,0.16796875,7,0,1,1,15,562.141418457031,159.770889282227,0,1,faces,male,0,1,objects,A,big,VS,O,33,E01,134.576171875
0,1,0,24038,3.46484375,0.23046875,8,0,11,46,16,1035.39050292969,185.575408935547,0,1,faces,male,0,1,objects,A,big,VS,O,33,E01,134.576171875
0,1,0,24039,3.763671875,0.27734375,9,0,13,74,17,1347.88037109375,270.145324707031,0,1,faces,male,0,1,objects,A,big,VS,O,33,E01,134.576171875
1,1,0,24050,0.30078125,0.208984375,1,1,9,40,1,915.523193359375,454.964538574219,0,1,faces,female,0,1,faces,A,female,VS,F,34,E01,138.775390625
0,1,0,24052,0.8046875,0.236328125,2,1,2,4,3,544.391723632812,448.719268798828,0,1,faces,female,0,1,faces,A,female,VS,F,34,E01,138.775390625
2,1,1,24053,1.109375,0.15234375,3,1,9,40,4,915.721435546875,440.845153808594,0,1,faces,female,0,1,faces,A,female,VS,F,34,E01,138.775390625
0,1,0,24056,1.580078125,0.21875,4,1,10,55,7,1150.98364257812,187.569046020508,0,1,faces,female,0,1,faces,A,female,VS,F,34,E01,138.775390625
0,1,0,24057,1.859375,0.2109375,5,0,15,73,8,1363.92053222656,189.005462646484,0,1,objects,small,0,1,faces,A,female,VS,F,34,E01,138.775390625
0,1,0,24059,2.283203125,0.169921875,6,0,1,3,10,545.317565917969,362.532409667969,0,1,faces,male,0,1,faces,A,female,VS,F,34,E01,138.775390625
0,1,0,24061,2.716796875,0.189453125,7,0,4,7,12,557.445129394531,701.212158203125,0,1,objects,big,0,1,faces,A,female,VS,F,34,E01,138.775390625
0,1,0,24062,2.9609375,0.208984375,8,0,7,23,13,744.865173339844,561.093139648438,0,1,faces,male,0,1,faces,A,female,VS,F,34,E01,138.775390625
0,1,1,24066,3.705078125,0.171875,9,0,13,63,17,1173.31298828125,945.462829589844,0,1,faces,male,0,1,faces,A,female,VS,F,34,E01,138.775390625
0,1,0,24074,0.59375,0.25390625,1,1,2,2,1,543.738647460938,234.250823974609,0,1,faces,female,0,1,objects,A,small,VS,O,35,E01,142.974609375
0,1,0,24076,1.1796875,0.12109375,2,1,6,16,3,665.416442871094,737.869812011719,0,1,faces,female,0,1,objects,A,small,VS,O,35,E01,142.974609375
0,1,0,24078,1.513671875,0.34375,3,1,4,11,5,641.643798828125,255.514495849609,0,1,objects,small,0,1,objects,A,small,VS,O,35,E01,142.974609375
1,1,0,24079,1.92578125,0.1171875,4,1,10,38,6,968.949829101562,250.905578613281,0,1,objects,small,0,1,objects,A,small,VS,O,35,E01,142.974609375
0,1,0,24081,2.353515625,0.115234375,5,0,8,26,8,738.461242675781,858.566101074219,0,1,objects,big,0,1,objects,A,small,VS,O,35,E01,142.974609375
0,1,0,24082,2.556640625,0.216796875,6,0,11,63,9,1184.224609375,941.761352539062,0,1,faces,male,0,1,objects,A,small,VS,O,35,E01,142.974609375
0,1,0,24084,3.009765625,0.16796875,7,0,12,65,11,1263.14245605469,287.806243896484,0,1,faces,female,0,1,objects,A,small,VS,O,35,E01,142.974609375
2,1,0,24085,3.24609375,0.189453125,8,0,10,38,12,932.584167480469,262.653259277344,0,1,objects,small,0,1,objects,A,small,VS,O,35,E01,142.974609375
0,1,0,24086,3.53125,0.24609375,9,0,9,32,13,811.955871582031,553.36474609375,0,1,objects,small,0,1,objects,A,small,VS,O,35,E01,142.974609375
0,1,0,24087,3.841796875,0.193359375,10,0,5,14,14,628.697509765625,590.450256347656,0,1,faces,male,0,1,objects,A,small,VS,O,35,E01,142.974609375
1,1,0,24099,0.248046875,0.181640625,1,1,7,32,1,811.772277832031,570.896728515625,0,1,faces,male,1,0,objects,P,small,VS,O,36,E01,147.173828125
0,0,0,24101,0.6875,0.298828125,2,1,3,11,3,672.589172363281,216.697219848633,1,0,NaN,NaN,1,0,objects,P,small,VS,O,36,E01,147.173828125
0,0,1,24102,1.033203125,0.169921875,3,1,11,47,4,1049.21008300781,271.224487304688,0,1,faces,male,1,0,objects,P,small,VS,O,36,E01,147.173828125
0,0,0,24104,1.462890625,0.27734375,4,1,12,59,6,1180.33081054688,530.977111816406,0,1,faces,female,1,0,objects,P,small,VS,O,36,E01,147.173828125
2,0,0,24105,1.80859375,0.232421875,5,0,7,32,7,865.935607910156,533.672058105469,0,1,faces,male,1,0,objects,P,small,VS,O,36,E01,147.173828125
1,0,0,24106,2.095703125,0.279296875,6,0,6,25,8,734.776428222656,700.874267578125,0,1,faces,female,1,0,objects,P,small,VS,O,36,E01,147.173828125
0,0,0,24107,2.423828125,0.244140625,7,0,9,42,9,956.766540527344,644.354797363281,0,1,objects,big,1,0,objects,P,small,VS,O,36,E01,147.173828125
0,0,0,24109,2.91015625,0.142578125,8,0,10,45,11,938.185974121094,938.696899414062,0,1,objects,small,1,0,objects,P,small,VS,O,36,E01,147.173828125
2,0,0,24111,3.28125,0.1484375,9,0,6,25,13,735.096313476562,748.220336914062,0,1,faces,female,1,0,objects,P,small,VS,O,36,E01,147.173828125
0,0,0,24112,3.470703125,0.103515625,10,0,1,5,14,579.466918945312,569.220825195312,0,1,faces,female,1,0,objects,P,small,VS,O,36,E01,147.173828125
0,0,0,24114,3.84765625,0.1484375,11,0,13,60,16,1180.62707519531,610.1357421875,0,1,objects,big,1,0,objects,P,small,VS,O,36,E01,147.173828125
0,1,0,24125,0.4296875,0.265625,1,1,4,20,2,785.801696777344,214.029449462891,0,1,faces,male,0,1,objects,A,small,EX,O,37,E01,151.373046875
0,1,0,24126,0.796875,0.125,2,1,14,74,3,1335.70446777344,196.230697631836,0,1,faces,female,0,1,objects,A,small,EX,O,37,E01,151.373046875
0,1,0,24127,0.955078125,0.150390625,3,1,13,73,4,1373.45593261719,183.433334350586,0,1,faces,male,0,1,objects,A,small,EX,O,37,E01,151.373046875
1,1,0,24128,1.177734375,0.177734375,4,1,9,47,5,1043.52478027344,215.816390991211,0,1,objects,big,0,1,objects,A,small,EX,O,37,E01,151.373046875
0,1,0,24129,1.380859375,0.162109375,5,0,8,38,6,997.353271484375,244.655426025391,0,1,faces,female,0,1,objects,A,small,EX,O,37,E01,151.373046875
2,1,0,24130,1.583984375,0.30859375,6,0,9,47,7,1074.40441894531,254.002395629883,0,1,objects,big,0,1,objects,A,small,EX,O,37,E01,151.373046875
0,1,0,24131,1.962890625,0.181640625,7,0,12,67,8,1309.62915039062,454.301330566406,0,1,faces,female,0,1,objects,A,small,EX,O,37,E01,151.373046875
0,1,0,24133,2.443359375,0.1953125,8,0,5,24,10,756.03173828125,668.71142578125,0,1,objects,small,0,1,objects,A,small,EX,O,37,E01,151.373046875
0,1,0,24136,3.02734375,0.201171875,9,0,6,27,13,742.673950195312,968.25341796875,0,1,objects,small,0,1,objects,A,small,EX,O,37,E01,151.373046875
0,1,0,24137,3.275390625,0.21875,10,0,10,53,14,1078.38989257812,854.335144042969,0,1,objects,small,0,1,objects,A,small,EX,O,37,E01,151.373046875
0,1,0,24138,3.5234375,0.205078125,11,0,11,62,15,1162.21618652344,832.706604003906,0,1,objects,big,0,1,objects,A,small,EX,O,37,E01,151.373046875
0,1,0,24139,3.779296875,0.29296875,12,0,15,81,16,1408.70288085938,931.973022460938,0,1,faces,male,0,1,objects,A,small,EX,O,37,E01,151.373046875
0,1,0,24152,0.6796875,0.265625,1,1,6,28,3,901.42822265625,160.194122314453,0,1,faces,female,0,1,faces,A,female,EX,F,38,E01,155.572265625
0,1,0,24153,0.982421875,0.232421875,2,1,8,37,4,956.962829589844,166.157073974609,0,1,objects,small,0,1,faces,A,female,EX,F,38,E01,155.572265625
0,1,0,24154,1.28125,0.30078125,3,1,11,48,5,1078.69653320312,350.54736328125,0,1,objects,small,0,1,faces,A,female,EX,F,38,E01,155.572265625
0,1,1,24156,1.888671875,0.171875,4,1,15,77,7,1408.85412597656,542.827697753906,0,1,objects,small,0,1,faces,A,female,EX,F,38,E01,155.572265625
0,1,0,24160,2.703125,0.205078125,5,0,7,33,11,843.147766113281,638.440551757812,0,1,faces,female,0,1,faces,A,female,EX,F,38,E01,155.572265625
0,1,0,24161,2.951171875,0.3515625,6,0,9,43,12,962.6103515625,725.459045410156,0,1,objects,big,0,1,faces,A,female,EX,F,38,E01,155.572265625
0,1,1,24162,3.34765625,0.134765625,7,0,10,44,13,964.831176757812,848.546630859375,0,1,faces,male,0,1,faces,A,female,EX,F,38,E01,155.572265625
0,1,0,24164,3.716796875,0.314453125,8,0,3,7,15,553.447875976562,753.230041503906,0,1,objects,big,0,1,faces,A,female,EX,F,38,E01,155.572265625
1,1,0,24178,0.234375,0.189453125,1,1,11,62,1,1202.33361816406,848.809997558594,0,1,objects,big,1,0,faces,P,female,VS,I,39,E01,159.771484375
0,1,0,24179,0.466796875,0.216796875,2,1,13,70,2,1271.73889160156,763.126281738281,0,1,faces,female,1,0,faces,P,female,VS,I,39,E01,159.771484375
0,1,1,24180,0.763671875,0.123046875,3,1,4,27,3,794.161682128906,923.385498046875,0,1,faces,female,1,0,faces,P,female,VS,I,39,E01,159.771484375
0,1,0,24183,1.298828125,0.146484375,4,1,6,33,6,848.128356933594,644.754455566406,1,0,NaN,NaN,1,0,faces,P,female,VS,I,39,E01,159.771484375
0,1,1,24184,1.48828125,0.185546875,5,0,3,25,7,757.273742675781,738.952331542969,0,1,faces,female,1,0,faces,P,female,VS,I,39,E01,159.771484375
0,1,0,24186,2.001953125,0.25390625,6,0,14,77,9,1361.19165039062,525.077575683594,0,1,faces,male,1,0,faces,P,female,VS,I,39,E01,159.771484375
1,1,0,24187,2.322265625,0.166015625,7,0,9,58,10,1165.28979492188,451.537231445312,0,1,faces,male,1,0,faces,P,female,VS,I,39,E01,159.771484375
0,1,0,24188,2.541015625,0.201171875,8,0,7,38,11,991.632934570312,268.792053222656,0,1,faces,male,1,0,faces,P,female,VS,I,39,E01,159.771484375
0,1,0,24189,2.771484375,0.203125,9,0,5,28,12,830.712280273438,184.073226928711,0,1,objects,big,1,0,faces,P,female,VS,I,39,E01,159.771484375
0,1,0,24190,3.01171875,0.1328125,10,0,1,19,13,755.508666992188,178.257415771484,0,1,faces,female,1,0,faces,P,female,VS,I,39,E01,159.771484375
0,1,0,24191,3.23828125,0.228515625,11,0,10,61,14,1153.61206054688,721.642211914062,0,1,objects,big,1,0,faces,P,female,VS,I,39,E01,159.771484375
2,1,0,24192,3.525390625,0.201171875,12,0,11,62,15,1154.01208496094,856.630859375,0,1,objects,big,1,0,faces,P,female,VS,I,39,E01,159.771484375
2,1,0,24194,3.951171875,0.13671875,13,0,9,58,17,1163.58129882812,462.493041992188,0,1,faces,male,1,0,faces,P,female,VS,I,39,E01,159.771484375
1,1,0,24208,0.310546875,0.13671875,1,1,6,33,1,879.312072753906,656.738037109375,0,1,faces,female,0,1,objects,A,big,EX,O,40,E01,163.970703125
0,1,0,24210,0.78125,0.296875,2,1,3,19,3,768.084899902344,167.276962280273,0,1,faces,male,0,1,objects,A,big,EX,O,40,E01,163.970703125
0,1,1,24211,1.169921875,0.14453125,3,1,12,55,4,1113.52270507812,168.169097900391,0,1,faces,female,0,1,objects,A,big,EX,O,40,E01,163.970703125
0,1,1,24214,1.857421875,0.162109375,4,1,15,77,7,1334.58923339844,546.798400878906,0,1,faces,female,0,1,objects,A,big,EX,O,40,E01,163.970703125
0,1,0,24216,2.283203125,0.19921875,5,0,14,69,9,1295.46704101562,609.803649902344,0,1,faces,female,0,1,objects,A,big,EX,O,40,E01,163.970703125
2,1,0,24217,2.595703125,0.25390625,6,0,6,33,10,861.01953125,659.981079101562,0,1,faces,female,0,1,objects,A,big,EX,O,40,E01,163.970703125
0,1,0,24219,3.068359375,0.31640625,7,0,9,44,12,972.14794921875,852.854919433594,0,1,faces,male,0,1,objects,A,big,EX,O,40,E01,163.970703125
0,1,0,24220,3.423828125,0.205078125,8,0,11,54,13,1022.19409179688,929.3603515625,0,1,objects,big,0,1,objects,A,big,EX,O,40,E01,163.970703125
0,1,0,24238,0.46875,0.208984375,1,1,2,8,2,598.920837402344,865.965515136719,0,1,objects,small,1,1,faces,P,female,VS,F,41,E01,168.169921875
1,1,1,24240,0.947265625,0.16015625,2,1,13,60,4,1175.990234375,671.871765136719,1,0,NaN,NaN,1,1,faces,P,female,VS,F,41,E01,168.169921875
0,1,0,24242,1.35546875,0.109375,3,1,14,69,6,1283.59777832031,629.944213867188,0,1,faces,female,1,1,faces,P,female,VS,F,41,E01,168.169921875
2,1,1,24243,1.525390625,0.150390625,4,1,13,60,7,1183.42553710938,643.624877929688,1,0,NaN,NaN,1,1,faces,P,female,VS,F,41,E01,168.169921875
0,1,0,24262,0.71484375,0.234375,1,1,1,1,3,524.730224609375,172.699615478516,0,1,objects,big,1,1,faces,P,female,VS,I,42,E01,172.369140625
1,1,0,24264,1.1484375,0.123046875,2,1,5,22,5,757.424255371094,470.79052734375,1,0,NaN,NaN,1,1,faces,P,female,VS,I,42,E01,172.369140625
0,1,0,24265,1.375,0.158203125,3,1,13,74,6,1339.47509765625,217.675369262695,0,1,faces,female,1,1,faces,P,female,VS,I,42,E01,172.369140625
2,0,1,24267,1.79296875,0.345703125,4,1,5,22,8,752.685119628906,454.256744384766,1,0,NaN,NaN,1,1,faces,P,female,VS,I,42,E01,172.369140625
0,1,0,24280,0.2578125,0.123046875,1,1,7,38,2,998.419067382812,280.161285400391,0,1,objects,small,0,0,faces,P,female,VS,F,43,E01,176.568359375
0,1,0,24282,0.6875,0.1796875,2,1,15,74,4,1380.99206542969,267.209381103516,0,1,faces,female,0,0,faces,P,female,VS,F,43,E01,176.568359375
0,1,1,24283,0.9375,0.115234375,3,1,12,66,5,1268.02124023438,381.933135986328,0,1,faces,female,0,0,faces,P,female,VS,F,43,E01,176.568359375
0,1,0,24285,1.3046875,0.33203125,4,1,9,56,7,1157.91357421875,268.5634765625,0,1,faces,female,0,0,faces,P,female,VS,F,43,E01,176.568359375
0,1,0,24286,1.712890625,0.431640625,5,0,4,22,8,728.591247558594,416.549072265625,0,1,faces,male,0,0,faces,P,female,VS,F,43,E01,176.568359375
0,1,0,24287,2.181640625,0.154296875,6,0,1,12,9,652.61328125,367.060150146484,0,1,faces,female,0,0,faces,P,female,VS,F,43,E01,176.568359375
0,1,1,24288,2.408203125,0.123046875,7,0,6,33,10,823.79541015625,671.662536621094,0,1,faces,female,0,0,faces,P,female,VS,F,43,E01,176.568359375
0,1,0,24290,2.720703125,0.234375,8,0,10,60,12,1181.83459472656,652.908081054688,0,1,faces,male,0,0,faces,P,female,VS,F,43,E01,176.568359375
0,1,0,24291,3.021484375,0.16796875,9,0,14,71,13,1269.54907226562,802.741760253906,0,1,objects,small,0,0,faces,P,female,VS,F,43,E01,176.568359375
0,1,1,24292,3.26171875,0.30078125,10,0,5,27,14,757.093872070312,934.858947753906,0,1,faces,male,0,0,faces,P,female,VS,F,43,E01,176.568359375
0,1,0,24299,0.330078125,0.1796875,1,1,5,31,1,813.555847167969,444.521514892578,0,1,faces,female,1,1,objects,P,big,VS,O,44,E01,180.767578125
0,1,0,24300,0.611328125,0.107421875,2,1,14,75,2,1353.90686035156,304.319000244141,0,1,faces,male,1,1,objects,P,big,VS,O,44,E01,180.767578125
0,1,0,24301,0.736328125,0.1015625,3,1,13,74,3,1371.01342773438,283.442687988281,0,1,faces,female,1,1,objects,P,big,VS,O,44,E01,180.767578125
0,1,0,24303,1.11328125,0.162109375,4,1,4,22,5,747.702209472656,447.280364990234,0,1,objects,small,1,1,objects,P,big,VS,O,44,E01,180.767578125
1,0,0,24304,1.33984375,0.248046875,5,0,2,6,6,558.606079101562,628.039428710938,1,0,NaN,NaN,1,1,objects,P,big,VS,O,44,E01,180.767578125
2,0,0,24306,1.796875,0.2265625,6,0,2,6,8,568.373657226562,636.00537109375,1,0,NaN,NaN,1,1,objects,P,big,VS,O,44,E01,180.767578125
0,1,0,24321,0.669921875,0.259765625,1,1,14,73,2,1328.40368652344,186.075744628906,0,1,objects,big,0,1,faces,A,male,EX,F,45,E01,184.966796875
0,1,0,24323,1.125,0.283203125,2,1,10,58,4,1156.8994140625,446.145751953125,0,1,objects,small,0,1,faces,A,male,EX,F,45,E01,184.966796875
0,1,1,24324,1.490234375,0.20703125,3,1,2,23,5,792.170471191406,575.998901367188,0,1,faces,male,0,1,faces,A,male,EX,F,45,E01,184.966796875
0,1,0,24326,1.91015625,0.2734375,4,1,1,6,7,530.965087890625,659.750732421875,0,1,faces,male,0,1,faces,A,male,EX,F,45,E01,184.966796875
0,1,1,24327,2.2890625,0.1484375,5,0,7,51,8,1025.29760742188,640.387390136719,0,1,faces,male,0,1,faces,A,male,EX,F,45,E01,184.966796875
0,1,0,24329,2.669921875,0.31640625,6,0,11,60,10,1174.37609863281,655.703552246094,0,1,objects,small,0,1,faces,A,male,EX,F,45,E01,184.966796875
0,1,1,24330,3.037109375,0.140625,7,0,12,61,11,1185.59533691406,739.349304199219,0,1,faces,male,0,1,faces,A,male,EX,F,45,E01,184.966796875
0,1,1,24332,3.3203125,0.20703125,8,0,6,45,13,914.288635253906,951.101318359375,0,1,faces,male,0,1,faces,A,male,EX,F,45,E01,184.966796875
0,1,0,24334,3.77734375,0.1640625,9,0,8,54,15,1089.06750488281,933.723754882812,0,1,objects,big,0,1,faces,A,male,EX,F,45,E01,184.966796875
1,1,1,24351,0.28125,0.19921875,1,1,9,37,2,972.220275878906,164.320068359375,1,0,NaN,NaN,1,1,objects,P,big,VS,O,46,E01,189.166015625
2,0,0,24357,3.62890625,0.236328125,2,1,9,37,8,966.853759765625,185.062957763672,1,0,NaN,NaN,1,1,objects,P,big,VS,O,46,E01,189.166015625
0,1,0,24377,0.94921875,0.162109375,1,1,8,47,4,1108.9951171875,197.796524047852,0,1,objects,big,0,1,faces,A,male,EX,I,47,E01,193.365234375
0,1,1,24378,1.162109375,0.15234375,2,1,7,37,5,988.125915527344,180.483352661133,0,1,objects,big,0,1,faces,A,male,EX,I,47,E01,193.365234375
0,1,0,24380,1.63671875,0.123046875,3,1,11,56,7,1169.85498046875,270.970581054688,0,1,faces,female,0,1,faces,A,male,EX,I,47,E01,193.365234375
0,1,0,24382,2.052734375,0.23046875,4,1,1,5,9,608.989196777344,539.60986328125,0,1,faces,male,0,1,faces,A,male,EX,I,47,E01,193.365234375
0,1,1,24384,2.703125,0.1015625,5,0,15,77,11,1340.30297851562,543.927734375,0,1,objects,small,0,1,faces,A,male,EX,I,47,E01,193.365234375
0,1,0,24386,3.1171875,0.146484375,6,0,9,52,13,1027.96435546875,712.746520996094,0,1,faces,female,0,1,faces,A,male,EX,I,47,E01,193.365234375
0,1,0,24387,3.47265625,0.119140625,7,0,6,36,14,910.447570800781,931.937927246094,0,1,faces,male,0,1,faces,A,male,EX,I,47,E01,193.365234375
0,1,1,24402,0.4453125,0.1171875,1,1,1,12,2,708.575561523438,341.336883544922,0,1,faces,male,0,0,faces,P,male,VS,I,48,E01,197.564453125
0,1,0,24405,1.205078125,0.2578125,2,1,3,15,5,692.290344238281,596.365905761719,0,1,objects,small,0,0,faces,P,male,VS,I,48,E01,197.564453125
0,1,0,24406,1.490234375,0.2265625,3,1,2,14,6,654.623962402344,552.608215332031,0,1,faces,female,0,0,faces,P,male,VS,I,48,E01,197.564453125
1,1,0,24407,1.759765625,0.5546875,4,1,4,24,7,761.429443359375,654.796325683594,0,1,faces,male,0,0,faces,P,male,VS,I,48,E01,197.564453125
0,1,0,24408,2.38671875,0.205078125,5,0,6,36,8,844.527587890625,946.560485839844,0,1,objects,big,0,0,faces,P,male,VS,I,48,E01,197.564453125
2,1,0,24409,2.650390625,0.2265625,6,0,4,24,9,768.153747558594,674.875244140625,0,1,faces,male,0,0,faces,P,male,VS,I,48,E01,197.564453125
0,1,1,24411,3.20703125,0.21875,7,0,15,80,11,1311.47436523438,843.32373046875,0,1,faces,male,0,0,faces,P,male,VS,I,48,E01,197.564453125
0,1,0,24414,3.76171875,0.283203125,8,0,12,60,14,1189.48754882812,614.091857910156,0,1,faces,female,0,0,faces,P,male,VS,I,48,E01,197.564453125
0,1,0,24426,0.669921875,0.37109375,1,1,3,13,2,662.021606445312,433.898071289062,0,1,faces,male,1,1,faces,P,male,VS,F,49,E01,201.763671875
0,1,0,24427,1.107421875,0.501953125,2,1,6,24,3,759.810119628906,644.431945800781,0,1,faces,male,1,1,faces,P,male,VS,F,49,E01,201.763671875
0,1,1,24428,1.666015625,0.173828125,3,1,4,17,4,699.128967285156,862.157287597656,0,1,faces,female,1,1,faces,P,male,VS,F,49,E01,201.763671875
0,1,0,24431,2.205078125,0.1875,4,1,8,34,7,861.879821777344,733.322326660156,0,1,objects,big,1,1,faces,P,male,VS,F,49,E01,201.763671875
0,1,0,24432,2.462890625,0.26171875,5,0,11,60,8,1174.16564941406,592.690612792969,0,1,faces,female,1,1,faces,P,male,VS,F,49,E01,201.763671875
0,1,1,24433,2.74609375,0.123046875,6,0,10,59,9,1161.90783691406,569.056396484375,1,0,NaN,NaN,1,1,faces,P,male,VS,F,49,E01,201.763671875
0,1,0,24449,0.435546875,0.27734375,1,1,7,28,2,847.1767578125,186.964859008789,0,1,objects,big,1,1,objects,P,small,VS,O,50,E01,205.962890625
0,0,1,24451,0.9140625,0.310546875,2,1,5,19,4,739.078857421875,160.408584594727,1,0,NaN,NaN,1,1,objects,P,small,VS,O,50,E01,205.962890625
0,1,0,24470,0.330078125,0.123046875,1,1,5,40,2,960.717895507812,448.476684570312,0,1,faces,male,0,1,faces,A,female,EX,F,51,E01,210.162109375
0,1,0,24473,0.974609375,0.171875,2,1,13,73,5,1382.53234863281,183.755401611328,0,1,faces,male,0,1,faces,A,female,EX,F,51,E01,210.162109375
0,1,0,24474,1.224609375,0.3125,3,1,9,48,6,1087.04565429688,365.104553222656,0,1,faces,female,0,1,faces,A,female,EX,F,51,E01,210.162109375
0,1,0,24476,1.74609375,0.142578125,4,1,11,59,8,1162.73352050781,550.187561035156,0,1,faces,female,0,1,faces,A,female,EX,F,51,E01,210.162109375
0,1,1,24480,2.591796875,0.21484375,5,0,4,34,12,880.8359375,783.4501953125,0,1,faces,female,0,1,faces,A,female,EX,F,51,E01,210.162109375
1,1,0,24499,0.5078125,0.15625,1,1,10,57,3,1137.99877929688,381.704315185547,1,0,NaN,NaN,1,1,faces,P,female,VS,I,52,E01,214.361328125
0,1,0,24500,0.69140625,0.12890625,2,1,9,49,4,1088.83044433594,450.209747314453,0,1,faces,female,1,1,faces,P,female,VS,I,52,E01,214.361328125
2,0,1,24501,0.861328125,0.275390625,3,1,10,57,5,1175.8037109375,359.331573486328,1,0,NaN,NaN,1,1,faces,P,female,VS,I,52,E01,214.361328125
0,0,0,24505,2.900390625,0.234375,4,1,5,24,9,751.211791992188,649.386169433594,0,1,faces,male,1,1,faces,P,female,VS,I,52,E01,214.361328125
0,0,0,24506,3.2109375,0.166015625,5,0,13,69,10,1245.78747558594,655.629577636719,0,1,faces,male,1,1,faces,P,female,VS,I,52,E01,214.361328125
0,0,1,24507,3.419921875,0.146484375,6,0,14,78,11,1329.83264160156,643.86572265625,0,1,faces,female,1,1,faces,P,female,VS,I,52,E01,214.361328125
0,0,0,24509,3.837890625,0.232421875,7,0,3,17,13,670.445373535156,868.890258789062,0,1,faces,female,1,1,faces,P,female,VS,I,52,E01,214.361328125
1,1,0,24525,0.326171875,0.18359375,1,1,2,4,2,553.202941894531,451.230102539062,0,1,faces,female,0,1,objects,A,small,VS,O,53,E01,218.560546875
0,1,0,24526,0.57421875,0.1171875,2,1,3,15,3,647.522521972656,637.128479003906,0,1,objects,big,0,1,objects,A,small,VS,O,53,E01,218.560546875
0,1,0,24528,0.943359375,0.150390625,3,1,4,19,5,752.151000976562,186.026351928711,0,1,objects,small,0,1,objects,A,small,VS,O,53,E01,218.560546875
0,1,0,24529,1.162109375,0.28515625,4,1,9,57,6,1147.37438964844,312.969299316406,0,1,faces,male,0,1,objects,A,small,VS,O,53,E01,218.560546875
0,1,0,24530,1.4921875,0.27734375,5,0,10,58,7,1200.96728515625,418.289703369141,0,1,objects,small,0,1,objects,A,small,VS,O,53,E01,218.560546875
0,1,0,24531,1.8046875,0.193359375,6,0,7,48,8,1087.81921386719,356.905181884766,0,1,objects,big,0,1,objects,A,small,VS,O,53,E01,218.560546875
0,1,0,24532,2.072265625,0.2265625,7,0,8,52,9,1063.87194824219,772.291381835938,0,1,objects,small,0,1,objects,A,small,VS,O,53,E01,218.560546875
0,1,0,24533,2.361328125,0.1953125,8,0,11,63,10,1181.49951171875,922.214111328125,0,1,faces,female,0,1,objects,A,small,VS,O,53,E01,218.560546875
0,1,0,24534,2.62109375,0.158203125,9,0,15,81,11,1382.80810546875,932.181640625,0,1,faces,female,0,1,objects,A,small,VS,O,53,E01,218.560546875
0,1,1,24536,3.1015625,0.125,10,0,13,66,13,1275.31469726562,311.089172363281,0,1,faces,male,0,1,objects,A,small,VS,O,53,E01,218.560546875
2,1,0,24540,3.91015625,0.134765625,11,0,2,4,17,545.525146484375,471.190185546875,0,1,faces,female,0,1,objects,A,small,VS,O,53,E01,218.560546875
0,1,0,24558,0.3046875,0.205078125,1,1,5,20,1,728.078918457031,257.497161865234,0,1,faces,male,1,1,faces,P,female,VS,F,54,E01,222.759765625
0,1,0,24560,0.8046875,0.248046875,2,1,13,57,3,1149.37609863281,335.649810791016,0,1,objects,small,1,1,faces,P,female,VS,F,54,E01,222.759765625
1,1,0,24561,1.126953125,0.16796875,3,1,6,22,4,710.824035644531,410.657073974609,1,0,NaN,NaN,1,1,faces,P,female,VS,F,54,E01,222.759765625
0,1,0,24562,1.32421875,0.146484375,4,1,3,12,5,675.365478515625,374.251831054688,0,1,faces,male,1,1,faces,P,female,VS,F,54,E01,222.759765625
2,1,0,24563,1.51171875,0.18359375,5,0,6,22,6,765.134826660156,437.417083740234,1,0,NaN,NaN,1,1,faces,P,female,VS,F,54,E01,222.759765625
0,1,0,24576,0.32421875,0.123046875,1,1,7,30,1,893.881469726562,333.017852783203,0,1,faces,male,1,1,objects,P,small,VS,O,55,E01,226.958984375
0,1,0,24577,0.5390625,0.36328125,2,1,13,56,2,1177.07690429688,244.857757568359,0,1,objects,small,1,1,objects,P,small,VS,O,55,E01,226.958984375
0,0,1,24579,1.169921875,0.333984375,3,1,2,15,4,657.551147460938,631.923889160156,1,0,NaN,NaN,1,1,objects,P,small,VS,O,55,E01,226.958984375
0,0,0,24582,3.330078125,0.43359375,4,1,3,16,7,655.642333984375,724.762451171875,0,1,faces,male,1,1,objects,P,small,VS,O,55,E01,226.958984375
0,1,0,24597,0.48046875,0.23828125,1,1,6,39,1,954.71435546875,331.775238037109,0,1,faces,male,1,1,objects,P,big,VS,O,56,E01,231.158203125
0,1,0,24599,1.09765625,0.1875,2,1,10,58,3,1141.20251464844,479.136810302734,0,1,faces,male,1,1,objects,P,big,VS,O,56,E01,231.158203125
0,1,0,24600,1.353515625,0.224609375,3,1,7,42,4,999.66650390625,628.956787109375,0,1,objects,small,1,1,objects,P,big,VS,O,56,E01,231.158203125
0,1,0,24601,1.625,0.171875,4,1,11,60,5,1178.12170410156,627.736511230469,0,1,objects,big,1,1,objects,P,big,VS,O,56,E01,231.158203125
0,1,0,24602,1.873046875,0.267578125,5,0,2,15,6,624.904479980469,657.756713867188,0,1,objects,small,1,1,objects,P,big,VS,O,56,E01,231.158203125
0,1,0,24603,2.23046875,0.22265625,6,0,8,52,7,1099.73718261719,760.257995605469,0,1,objects,small,1,1,objects,P,big,VS,O,56,E01,231.158203125
0,1,0,24604,2.515625,0.177734375,7,0,13,71,8,1286.58728027344,838.879699707031,0,1,faces,female,1,1,objects,P,big,VS,O,56,E01,231.158203125
0,1,1,24605,2.734375,0.19921875,8,0,14,80,9,1381.43322753906,873.536437988281,1,0,NaN,NaN,1,1,objects,P,big,VS,O,56,E01,231.158203125
0,1,0,24622,1.58984375,0.287109375,1,1,3,21,4,774.118713378906,368.730651855469,0,1,faces,female,0,0,faces,A,female,EX,I,57,E01,235.357421875
0,1,1,24623,1.951171875,0.169921875,2,1,12,66,5,1251.466796875,351.841705322266,0,1,faces,female,0,0,faces,A,female,EX,I,57,E01,235.357421875
0,1,0,24626,2.51171875,0.185546875,3,1,4,24,8,736.104248046875,630.661499023438,0,1,faces,female,0,0,faces,A,female,EX,I,57,E01,235.357421875
0,1,0,24627,2.779296875,0.39453125,4,1,5,26,9,761.325561523438,850.358215332031,0,1,objects,small,0,0,faces,A,female,EX,I,57,E01,235.357421875
0,1,0,24628,3.2109375,0.19140625,5,0,8,36,10,853.936889648438,919.545837402344,0,1,faces,male,0,0,faces,A,female,EX,I,57,E01,235.357421875
0,1,0,24630,3.689453125,0.19921875,6,0,10,61,12,1192.25805664062,730.0146484375,0,1,faces,male,0,0,faces,A,female,EX,I,57,E01,235.357421875
0,1,0,24647,0.306640625,0.115234375,1,1,2,4,1,603.308044433594,422.733764648438,0,1,objects,small,0,0,faces,A,male,VS,F,58,E01,239.556640625
1,1,0,24648,0.453125,0.14453125,2,1,4,12,2,616.473083496094,380.056365966797,0,1,faces,female,0,0,faces,A,male,VS,F,58,E01,239.556640625
0,1,0,24650,0.869140625,0.26171875,3,1,1,1,4,551.676513671875,162.695297241211,0,1,faces,male,0,0,faces,A,male,VS,F,58,E01,239.556640625
0,1,0,24651,1.173828125,0.19921875,4,1,3,11,5,656.168518066406,248.800979614258,0,1,faces,male,0,0,faces,A,male,VS,F,58,E01,239.556640625
2,1,0,24652,1.421875,0.283203125,5,0,4,12,6,651.504821777344,350.389526367188,0,1,faces,female,0,0,faces,A,male,VS,F,58,E01,239.556640625
0,1,1,24654,1.89453125,0.279296875,6,0,5,15,8,660.511352539062,640.258056640625,0,1,faces,male,0,0,faces,A,male,VS,F,58,E01,239.556640625
0,1,1,24655,2.2421875,0.150390625,7,0,7,43,9,940.644897460938,720.601440429688,0,1,faces,male,0,0,faces,A,male,VS,F,58,E01,239.556640625
0,1,0,24657,2.830078125,0.26953125,8,0,11,62,11,1191.45861816406,832.041137695312,0,1,faces,male,0,0,faces,A,male,VS,F,58,E01,239.556640625
0,1,0,24658,3.166015625,0.115234375,9,0,15,81,12,1405.69287109375,927.774963378906,0,1,objects,small,0,0,faces,A,male,VS,F,58,E01,239.556640625
0,1,0,24659,3.400390625,0.19140625,10,0,13,66,13,1284.06311035156,378.805633544922,0,1,objects,big,0,0,faces,A,male,VS,F,58,E01,239.556640625
0,1,0,24660,3.62890625,0.1484375,11,0,10,58,14,1193.38439941406,404.785400390625,0,1,faces,female,0,0,faces,A,male,VS,F,58,E01,239.556640625
0,1,0,24661,3.81640625,0.263671875,12,0,12,65,15,1278.32202148438,266.240173339844,0,1,faces,male,0,0,faces,A,male,VS,F,58,E01,239.556640625
1,1,0,24671,0.345703125,0.166015625,1,1,9,33,1,833.23486328125,641.123413085938,0,1,faces,female,0,1,objects,A,big,VS,O,59,E01,243.755859375
0,1,0,24673,0.806640625,0.212890625,2,1,5,12,3,614.376281738281,378.565338134766,0,1,faces,female,0,1,objects,A,big,VS,O,59,E01,243.755859375
0,1,0,24674,2.439453125,0.146484375,3,1,13,67,4,1282.03161621094,457.039001464844,0,1,objects,big,0,1,objects,A,big,VS,O,59,E01,243.755859375
2,1,0,24675,2.65625,0.216796875,4,1,9,33,5,903.069885253906,612.758422851562,0,1,faces,female,0,1,objects,A,big,VS,O,59,E01,243.755859375
0,1,0,24678,3.455078125,0.494140625,5,0,2,2,8,557.765747070312,256.706207275391,0,1,objects,small,0,1,objects,A,big,VS,O,59,E01,243.755859375
0,1,0,24690,0.6328125,0.208984375,1,1,10,39,4,984.824157714844,321.693115234375,0,1,faces,female,0,1,faces,A,female,VS,I,60,E01,247.955078125
0,1,0,24691,0.8828125,0.126953125,2,1,9,38,5,953.031372070312,275.580017089844,0,1,objects,small,0,1,faces,A,female,VS,I,60,E01,247.955078125
0,1,0,24694,1.421875,0.134765625,3,1,7,29,8,898.585876464844,246.606292724609,0,1,faces,male,0,1,faces,A,female,VS,I,60,E01,247.955078125
0,1,1,24695,1.625,0.14453125,4,1,12,49,9,1110.39953613281,452.432434082031,0,1,faces,female,0,1,faces,A,female,VS,I,60,E01,247.955078125
0,1,0,24697,1.96875,0.240234375,5,0,5,13,11,687.570251464844,473.148468017578,0,1,faces,male,0,1,faces,A,female,VS,I,60,E01,247.955078125
0,1,0,24698,2.896484375,0.19921875,6,0,13,53,12,1108.64721679688,821.785705566406,0,1,faces,female,0,1,faces,A,female,VS,I,60,E01,247.955078125
0,1,0,24699,3.17578125,0.265625,7,0,2,8,13,557.508117675781,868.11376953125,0,1,faces,male,0,1,faces,A,female,VS,I,60,E01,247.955078125
0,1,0,24700,3.482421875,0.138671875,8,0,3,9,14,543.233947753906,952.617431640625,0,1,faces,female,0,1,faces,A,female,VS,I,60,E01,247.955078125
0,1,0,24720,0.7109375,0.248046875,1,1,10,64,4,1289.44311523438,190.063079833984,0,1,faces,female,0,1,faces,A,female,VS,F,61,E01,252.154296875
0,1,0,24721,0.99609375,0.3125,2,1,12,73,5,1372.51599121094,184.513458251953,0,1,faces,female,0,1,faces,A,female,VS,F,61,E01,252.154296875
0,1,0,24722,1.353515625,0.30859375,3,1,13,74,6,1370.14331054688,265.791564941406,0,1,faces,female,0,1,faces,A,female,VS,F,61,E01,252.154296875
0,1,0,24723,1.693359375,0.154296875,4,1,11,65,7,1268.61010742188,273.91357421875,0,1,objects,big,0,1,faces,A,female,VS,F,61,E01,252.154296875
0,1,0,24725,2.109375,0.14453125,5,0,1,3,9,561.154541015625,351.471466064453,0,1,objects,big,0,1,faces,A,female,VS,F,61,E01,252.154296875
0,1,0,24726,2.318359375,0.16796875,6,0,4,22,10,740.606018066406,436.819396972656,0,1,faces,female,0,1,faces,A,female,VS,F,61,E01,252.154296875
0,1,0,24727,2.533203125,0.1953125,7,0,2,4,11,572.576049804688,449.65234375,0,1,faces,male,0,1,faces,A,female,VS,F,61,E01,252.154296875
0,1,0,24728,2.80078125,0.181640625,8,0,3,16,12,701.850524902344,725.381225585938,0,1,faces,male,0,1,faces,A,female,VS,F,61,E01,252.154296875
0,1,0,24729,3.02734375,0.138671875,9,0,7,34,13,850.96337890625,736.527038574219,0,1,faces,male,0,1,faces,A,female,VS,F,61,E01,252.154296875
0,1,0,24731,3.388671875,0.16015625,10,0,15,81,15,1396.06945800781,906.123840332031,0,1,faces,female,0,1,faces,A,female,VS,F,61,E01,252.154296875
0,1,0,24748,0.287109375,0.119140625,1,1,10,39,1,996.123413085938,298.218536376953,0,1,objects,small,0,0,faces,A,male,EX,I,62,E01,256.353515625
0,1,0,24750,0.708984375,0.306640625,2,1,13,65,3,1243.85009765625,257.394927978516,0,1,objects,big,0,0,faces,A,male,EX,I,62,E01,256.353515625
0,1,0,24751,1.0859375,0.267578125,3,1,6,29,4,865.728881835938,279.660278320312,0,1,faces,female,0,0,faces,A,male,EX,I,62,E01,256.353515625
0,1,0,24752,1.392578125,0.248046875,4,1,9,37,5,938.599670410156,179.155502319336,0,1,faces,female,0,0,faces,A,male,EX,I,62,E01,256.353515625
0,1,0,24754,1.935546875,0.244140625,5,0,7,30,7,873.321044921875,351.826293945312,0,1,faces,male,0,0,faces,A,male,EX,I,62,E01,256.353515625
0,1,0,24755,2.974609375,0.373046875,6,0,5,25,8,736.155029296875,742.5146484375,0,1,faces,female,0,0,faces,A,male,EX,I,62,E01,256.353515625
0,1,0,24756,3.38671875,0.17578125,7,0,4,16,9,644.914916992188,741.018737792969,0,1,faces,female,0,0,faces,A,male,EX,I,62,E01,256.353515625
0,1,0,24757,3.63671875,0.189453125,8,0,1,9,10,545.307922363281,929.364074707031,0,1,faces,male,0,0,faces,A,male,EX,I,62,E01,256.353515625
0,1,0,24758,3.904296875,0.142578125,9,0,14,70,11,1236.13452148438,754.201721191406,0,1,faces,female,0,0,faces,A,male,EX,I,62,E01,256.353515625
0,1,0,24776,0.94140625,0.171875,1,1,12,66,4,1267.71643066406,347.146545410156,0,1,objects,small,0,1,objects,A,big,EX,O,63,E01,260.552734375
0,1,0,24777,1.185546875,0.44140625,2,1,6,29,5,825.223999023438,271.808654785156,0,1,faces,female,0,1,objects,A,big,EX,O,63,E01,260.552734375
0,1,1,24778,1.697265625,0.2265625,3,1,10,57,6,1204.7109375,331.862579345703,0,1,objects,big,0,1,objects,A,big,EX,O,63,E01,260.552734375
0,1,0,24780,2.28515625,0.169921875,4,1,4,20,8,762.086853027344,260.433715820312,0,1,objects,big,0,1,objects,A,big,EX,O,63,E01,260.552734375
0,1,0,24781,2.529296875,0.21484375,5,0,1,5,9,568.882629394531,562.7001953125,0,1,faces,female,0,1,objects,A,big,EX,O,63,E01,260.552734375
0,1,0,24782,2.802734375,0.208984375,6,0,5,24,10,713.798461914062,659.778381347656,0,1,faces,female,0,1,objects,A,big,EX,O,63,E01,260.552734375
0,1,0,24785,3.41015625,0.1484375,7,0,15,79,13,1321.12890625,788.330993652344,0,1,faces,female,0,1,objects,A,big,EX,O,63,E01,260.552734375
0,1,0,24786,3.583984375,0.177734375,8,0,14,70,14,1289.15417480469,755.402648925781,0,1,faces,male,0,1,objects,A,big,EX,O,63,E01,260.552734375
0,1,0,24787,3.841796875,0.248046875,9,0,13,67,15,1223.18383789062,453.780242919922,0,1,objects,small,0,1,objects,A,big,EX,O,63,E01,260.552734375
1,1,0,24805,0.857421875,0.18359375,1,1,8,46,4,1065.06628417969,188.627288818359,1,0,NaN,NaN,1,1,faces,P,male,VS,F,64,E01,264.751953125
0,1,0,24806,1.083984375,0.251953125,2,1,11,55,5,1188.27416992188,174.363555908203,0,1,faces,female,1,1,faces,P,male,VS,F,64,E01,264.751953125
0,1,0,24807,1.37890625,0.126953125,3,1,13,64,6,1282.58129882812,179.22395324707,0,1,faces,female,1,1,faces,P,male,VS,F,64,E01,264.751953125
2,0,1,24808,1.57421875,0.7890625,4,1,8,46,7,1057.14697265625,164.334350585938,1,0,NaN,NaN,1,1,faces,P,male,VS,F,64,E01,264.751953125
3,0,1,24811,3.548828125,0.3671875,5,0,8,46,10,1049.53454589844,176.178359985352,1,0,NaN,NaN,1,1,faces,P,male,VS,F,64,E01,264.751953125
0,1,0,24828,0.75390625,0.150390625,1,1,6,27,3,780.145202636719,921.917114257812,0,1,objects,small,0,1,objects,P,small,VS,O,65,E01,268.951171875
0,1,1,24831,1.345703125,0.193359375,2,1,11,59,6,1165.75231933594,583.912170410156,0,1,faces,male,0,1,objects,P,small,VS,O,65,E01,268.951171875
0,1,1,24833,1.7578125,0.21484375,3,1,3,13,8,686.409851074219,481.324584960938,0,1,objects,big,0,1,objects,P,small,VS,O,65,E01,268.951171875
0,1,0,24835,2.19921875,0.25,4,1,2,11,10,646.60400390625,238.121948242188,0,1,faces,female,0,1,objects,P,small,VS,O,65,E01,268.951171875
0,1,0,24838,2.92578125,0.1640625,5,0,14,75,13,1380.693359375,341.766754150391,0,1,faces,male,0,1,objects,P,small,VS,O,65,E01,268.951171875
0,1,1,24840,3.625,0.16015625,6,0,10,52,15,1034.70227050781,723.556762695312,0,1,objects,big,0,1,objects,P,small,VS,O,65,E01,268.951171875
0,1,0,24855,1.45703125,0.166015625,1,1,10,56,3,1179.3828125,272.009429931641,0,1,faces,male,0,1,objects,A,small,EX,O,66,E01,273.150390625
0,1,1,24856,1.689453125,0.1796875,2,1,4,30,4,896.522766113281,334.623260498047,0,1,faces,male,0,1,objects,A,small,EX,O,66,E01,273.150390625
0,1,1,24858,2.11328125,0.177734375,3,1,14,67,6,1232.4443359375,391.556274414062,0,1,faces,female,0,1,objects,A,small,EX,O,66,E01,273.150390625
0,1,0,24860,2.568359375,0.2734375,4,1,7,49,8,1077.16918945312,447.694061279297,0,1,faces,male,0,1,objects,A,small,EX,O,66,E01,273.150390625
0,1,0,24861,2.884765625,0.193359375,5,0,5,31,9,857.808227539062,445.1591796875,0,1,objects,small,0,1,objects,A,small,EX,O,66,E01,273.150390625
0,1,0,24862,3.138671875,0.181640625,6,0,2,13,10,683.951232910156,443.912048339844,0,1,faces,male,0,1,objects,A,small,EX,O,66,E01,273.150390625
0,1,0,24884,0.62890625,0.310546875,1,1,11,64,2,1292.61657714844,188.862106323242,0,1,faces,female,1,1,faces,P,male,VS,F,67,E01,277.349609375
0,1,1,24885,0.99609375,0.16796875,2,1,12,66,3,1306.92932128906,333.741424560547,0,1,faces,male,1,1,faces,P,male,VS,F,67,E01,277.349609375
0,1,0,24887,1.38671875,0.23046875,3,1,3,23,5,737.35498046875,516.80224609375,0,1,objects,small,1,1,faces,P,male,VS,F,67,E01,277.349609375
0,1,0,24888,1.673828125,0.1328125,4,1,7,50,6,1032.78125,525.287109375,0,1,objects,big,1,1,faces,P,male,VS,F,67,E01,277.349609375
0,1,1,24889,1.908203125,0.119140625,5,0,1,2,7,575.541442871094,289.832977294922,0,1,faces,female,1,1,faces,P,male,VS,F,67,E01,277.349609375
0,1,0,24892,2.587890625,0.291015625,6,0,8,52,10,1058.1748046875,712.161926269531,0,1,faces,male,1,1,faces,P,male,VS,F,67,E01,277.349609375
0,1,0,24893,2.951171875,0.287109375,7,0,4,25,11,783.363586425781,732.798156738281,0,1,faces,female,1,1,faces,P,male,VS,F,67,E01,277.349609375
0,0,1,24894,3.3671875,0.244140625,8,0,2,9,12,558.304626464844,931.579284667969,1,0,NaN,NaN,1,1,faces,P,male,VS,F,67,E01,277.349609375
0,1,0,24915,0.892578125,0.248046875,1,1,15,67,4,1286.23864746094,441.473419189453,0,1,faces,male,1,0,faces,P,female,VS,I,68,E01,281.548828125
0,1,0,24917,1.359375,0.15234375,2,1,10,40,6,955.556213378906,459.053344726562,0,1,faces,female,1,0,faces,P,female,VS,I,68,E01,281.548828125
1,1,0,24919,1.884765625,0.154296875,3,1,4,22,8,742.323181152344,456.7265625,0,1,objects,small,1,0,faces,P,female,VS,I,68,E01,281.548828125
0,1,0,24920,2.08984375,0.2265625,4,1,5,24,9,765.790588378906,633.123657226562,0,1,faces,male,1,0,faces,P,female,VS,I,68,E01,281.548828125
0,1,0,24921,2.39453125,0.34375,5,0,6,26,10,761.250549316406,881.580627441406,0,1,faces,male,1,0,faces,P,female,VS,I,68,E01,281.548828125
0,1,0,24923,3,0.201171875,6,0,14,53,12,1083.58325195312,827.846862792969,0,1,faces,female,1,0,faces,P,female,VS,I,68,E01,281.548828125
2,1,0,24925,3.5703125,0.15625,7,0,4,22,14,760.565795898438,453.0693359375,0,1,objects,small,1,0,faces,P,female,VS,I,68,E01,281.548828125
0,1,0,24942,0.7890625,0.23046875,1,1,1,1,4,572.707458496094,179.262817382812,0,1,faces,male,0,1,faces,A,male,VS,I,69,E01,285.748046875
0,1,0,24943,1.0625,0.208984375,2,1,3,11,5,659.598693847656,243.92138671875,0,1,faces,male,0,1,faces,A,male,VS,I,69,E01,285.748046875
0,1,0,24944,1.310546875,0.232421875,3,1,5,21,6,766.691467285156,329.737274169922,0,1,faces,female,0,1,faces,A,male,VS,I,69,E01,285.748046875
1,1,0,24947,2.017578125,0.232421875,4,1,6,25,9,770.143310546875,747.523376464844,0,1,faces,male,0,1,faces,A,male,VS,I,69,E01,285.748046875
0,1,0,24948,2.291015625,0.171875,5,0,11,34,10,871.250244140625,742.894958496094,0,1,faces,female,0,1,faces,A,male,VS,I,69,E01,285.748046875
0,1,1,24950,2.65625,0.18359375,6,0,9,32,12,877.2138671875,587.518737792969,0,1,faces,female,0,1,faces,A,male,VS,I,69,E01,285.748046875
0,1,0,24952,3.109375,0.14453125,7,0,2,6,14,538.912292480469,622.178161621094,0,1,faces,male,0,1,faces,A,male,VS,I,69,E01,285.748046875
0,1,0,24954,3.62890625,0.1875,8,0,15,77,16,1395.15783691406,535.680786132812,0,1,faces,female,0,1,faces,A,male,VS,I,69,E01,285.748046875
2,1,0,24955,3.8984375,0.14453125,9,0,6,25,17,791.160095214844,760.909973144531,0,1,faces,male,0,1,faces,A,male,VS,I,69,E01,285.748046875
0,1,0,24969,0.296875,0.19921875,1,1,5,22,1,762.139953613281,472.696166992188,0,1,faces,male,0,1,faces,P,male,VS,I,70,E01,289.947265625
1,1,0,24973,1.1875,0.16796875,2,1,7,37,5,966.644775390625,188.995407104492,0,1,faces,male,0,1,faces,P,male,VS,I,70,E01,289.947265625
2,1,1,24975,1.673828125,0.369140625,3,1,7,37,7,963.914123535156,187.571762084961,0,1,faces,male,0,1,faces,P,male,VS,I,70,E01,289.947265625
0,1,1,24977,2.515625,0.2265625,4,1,2,13,9,706.224426269531,415.048828125,0,1,faces,female,0,1,faces,P,male,VS,I,70,E01,289.947265625
0,1,0,24979,2.966796875,0.123046875,5,0,3,14,11,640.130615234375,512.093933105469,0,1,faces,male,0,1,faces,P,male,VS,I,70,E01,289.947265625
0,1,0,24980,3.19140625,0.1796875,6,0,10,60,12,1192.18176269531,687.569580078125,0,1,objects,small,0,1,faces,P,male,VS,I,70,E01,289.947265625
1,1,0,24981,3.421875,0.19140625,7,0,14,79,13,1365.166015625,783.748352050781,0,1,faces,female,0,1,faces,P,male,VS,I,70,E01,289.947265625
0,1,0,24982,3.640625,0.134765625,8,0,15,80,14,1385.958984375,830.299133300781,0,1,objects,small,0,1,faces,P,male,VS,I,70,E01,289.947265625
2,1,0,24983,3.802734375,0.142578125,9,0,14,79,15,1390.40637207031,767.240173339844,0,1,faces,female,0,1,faces,P,male,VS,I,70,E01,289.947265625
0,1,1,25001,1.0390625,0.17578125,1,1,2,12,4,707.72265625,344.351257324219,0,1,faces,female,0,1,faces,A,male,EX,F,71,E01,294.146484375
0,1,0,25004,1.8828125,0.203125,2,1,9,50,7,1070.19970703125,539.856323242188,0,1,faces,female,0,1,faces,A,male,EX,F,71,E01,294.146484375
0,1,0,25005,2.1328125,0.23046875,3,1,10,51,8,1078.40319824219,648.453369140625,0,1,objects,big,0,1,faces,A,male,EX,F,71,E01,294.146484375
0,1,1,25006,2.42578125,0.142578125,4,1,13,70,9,1246.18237304688,727.683349609375,0,1,faces,male,0,1,faces,A,male,EX,F,71,E01,294.146484375
0,1,0,25008,2.76953125,0.1953125,5,0,14,78,11,1371.95642089844,647.9013671875,0,1,faces,female,0,1,faces,A,male,EX,F,71,E01,294.146484375
0,1,1,25010,3.525390625,0.103515625,6,0,6,27,13,756.352233886719,891.624877929688,0,1,faces,male,0,1,faces,A,male,EX,F,71,E01,294.146484375
0,1,0,25028,0.99609375,0.17578125,1,1,14,75,4,1346.87756347656,375.747711181641,0,1,faces,male,1,1,faces,P,male,VS,I,72,E01,298.345703125
0,1,0,25029,1.25,0.185546875,2,1,5,31,5,907.6494140625,449.379577636719,0,1,faces,female,1,1,faces,P,male,VS,I,72,E01,298.345703125
0,0,1,25030,1.498046875,0.205078125,3,1,4,23,6,736.7685546875,522.930725097656,1,0,NaN,NaN,1,1,faces,P,male,VS,I,72,E01,298.345703125
0,1,0,25224,0.45703125,0.271484375,1,1,3,14,2,623.049926757812,506.791259765625,0,1,faces,female,0,0,objects,P,small,VS,O,73,E01,302.544921875
0,1,0,25225,0.787109375,0.21484375,2,1,4,15,3,672.444580078125,620.937438964844,0,1,objects,small,0,0,objects,P,small,VS,O,73,E01,302.544921875
0,1,0,25226,1.068359375,0.37109375,3,1,9,41,4,972.970153808594,520.599365234375,0,1,faces,male,0,0,objects,P,small,VS,O,73,E01,302.544921875
0,1,0,25229,1.751953125,0.16015625,4,1,7,34,7,872.026306152344,736.703796386719,0,1,faces,female,0,0,objects,P,small,VS,O,73,E01,302.544921875
0,1,1,25230,1.96484375,0.126953125,5,0,5,18,8,689.674377441406,900.870849609375,0,1,faces,male,0,0,objects,P,small,VS,O,73,E01,302.544921875
0,1,0,25232,2.30859375,0.115234375,6,0,14,70,10,1300.37634277344,772.554504394531,0,1,objects,big,0,0,objects,P,small,VS,O,73,E01,302.544921875
0,1,0,25233,2.447265625,0.181640625,7,0,15,79,11,1315.76342773438,751.009216308594,0,1,faces,male,0,0,objects,P,small,VS,O,73,E01,302.544921875
0,1,0,25236,3.048828125,0.119140625,8,0,1,3,14,559.986938476562,368.886962890625,0,1,faces,male,0,0,objects,P,small,VS,O,73,E01,302.544921875
0,1,0,25238,3.71484375,0.171875,9,0,13,68,16,1261.41076660156,530.588928222656,0,1,faces,female,0,0,objects,P,small,VS,O,73,E01,302.544921875
0,1,0,25253,0.5,0.1171875,1,1,14,71,2,1251.56420898438,809.363891601562,0,1,objects,big,0,1,objects,A,small,VS,O,74,E01,306.744140625
0,1,0,25254,0.6875,0.220703125,2,1,9,35,3,871.778991699219,873.103149414062,0,1,faces,female,0,1,objects,A,small,VS,O,74,E01,306.744140625
1,1,0,25255,0.94921875,0.125,3,1,8,34,4,843.197875976562,761.644348144531,0,1,faces,female,0,1,objects,A,small,VS,O,74,E01,306.744140625
2,1,0,25258,1.4921875,0.130859375,4,1,8,34,7,832.027404785156,711.398193359375,0,1,faces,female,0,1,objects,A,small,VS,O,74,E01,306.744140625
1,1,0,25259,1.677734375,0.189453125,5,0,7,33,8,863.57177734375,630.296569824219,0,1,objects,big,0,1,objects,A,small,VS,O,74,E01,306.744140625
0,1,0,25261,2.09375,0.201171875,6,0,1,7,10,537.177124023438,724.552795410156,0,1,objects,small,0,1,objects,A,small,VS,O,74,E01,306.744140625
0,1,1,25262,2.40625,0.1484375,7,0,5,30,11,835.083862304688,377.385040283203,0,1,faces,male,0,1,objects,A,small,VS,O,74,E01,306.744140625
0,1,0,25264,2.7265625,0.224609375,8,0,4,28,13,838.209777832031,163.199249267578,0,1,objects,small,0,1,objects,A,small,VS,O,74,E01,306.744140625
0,1,1,25265,2.998046875,0.15625,9,0,3,11,14,661.988037109375,211.389556884766,0,1,objects,small,0,1,objects,A,small,VS,O,74,E01,306.744140625
2,1,1,25268,3.6484375,0.302734375,10,0,7,33,17,857.101928710938,677.37255859375,0,1,objects,big,0,1,objects,A,small,VS,O,74,E01,306.744140625
0,1,0,25286,0.560546875,0.1640625,1,1,5,28,4,907.825256347656,181.814147949219,0,1,faces,male,0,1,objects,A,big,VS,O,75,E01,310.943359375
0,1,0,25290,1.38671875,0.1484375,2,1,11,55,8,1190.2490234375,164.600006103516,0,1,objects,big,0,1,objects,A,big,VS,O,75,E01,310.943359375
0,1,0,25291,1.572265625,0.201171875,3,1,8,37,9,976.789001464844,158.712829589844,0,1,objects,small,0,1,objects,A,big,VS,O,75,E01,310.943359375
0,1,0,25296,2.6640625,0.17578125,4,1,7,34,14,862.425109863281,694.780578613281,0,1,faces,male,0,1,objects,A,big,VS,O,75,E01,310.943359375
1,1,0,25320,0.2890625,0.150390625,1,1,5,20,2,744.108276367188,269.087982177734,0,1,faces,female,1,1,faces,P,female,VS,F,76,E01,315.142578125
0,1,0,25321,0.47265625,0.26171875,2,1,3,10,3,644.225769042969,174.7392578125,0,1,faces,male,1,1,faces,P,female,VS,F,76,E01,315.142578125
0,1,0,25322,0.845703125,0.2421875,3,1,13,73,4,1336.42272949219,188.365142822266,0,1,faces,male,1,1,faces,P,female,VS,F,76,E01,315.142578125
2,1,0,25323,1.1796875,0.22265625,4,1,5,20,5,716.709045410156,245.824111938477,0,1,faces,female,1,1,faces,P,female,VS,F,76,E01,315.142578125
0,1,0,25324,1.462890625,0.24609375,5,0,4,12,6,644.184814453125,345.332092285156,0,1,objects,small,1,1,faces,P,female,VS,F,76,E01,315.142578125
0,1,0,25325,1.767578125,0.2890625,6,0,2,5,7,547.527954101562,553.799011230469,0,1,faces,male,1,1,faces,P,female,VS,F,76,E01,315.142578125
0,1,0,25326,2.107421875,0.2109375,7,0,6,23,8,742.960693359375,555.971252441406,0,1,faces,male,1,1,faces,P,female,VS,F,76,E01,315.142578125
0,1,0,25327,2.361328125,0.255859375,8,0,8,33,9,855.112670898438,630.753295898438,0,1,faces,female,1,1,faces,P,female,VS,F,76,E01,315.142578125
0,0,1,25328,2.66015625,0.21875,9,0,9,34,10,870.931640625,722.354919433594,1,0,NaN,NaN,1,1,faces,P,female,VS,F,76,E01,315.142578125
0,1,0,25343,0.91015625,0.1171875,1,1,7,40,1,952.347351074219,423.478393554688,0,1,objects,small,0,1,faces,A,female,VS,I,77,E01,319.341796875
0,1,0,25345,1.314453125,0.25390625,2,1,11,66,3,1286.31823730469,381.132415771484,0,1,faces,male,0,1,faces,A,female,VS,I,77,E01,319.341796875
1,1,0,25347,1.859375,0.23828125,3,1,6,33,5,850.512329101562,614.813049316406,0,1,faces,male,0,1,faces,A,female,VS,I,77,E01,319.341796875
0,1,0,25348,2.166015625,0.1953125,4,1,2,6,6,554.998962402344,651.711242675781,0,1,faces,female,0,1,faces,A,female,VS,I,77,E01,319.341796875
2,1,1,25349,2.455078125,0.12890625,5,0,6,33,7,826.041198730469,656.210632324219,0,1,faces,male,0,1,faces,A,female,VS,I,77,E01,319.341796875
0,1,0,25351,3.033203125,0.220703125,6,0,9,62,9,1158.38818359375,812.333862304688,0,1,objects,small,0,1,faces,A,female,VS,I,77,E01,319.341796875
0,1,0,25352,3.330078125,0.275390625,7,0,4,17,10,697.269897460938,850.956909179688,0,1,faces,male,0,1,faces,A,female,VS,I,77,E01,319.341796875
0,1,0,25353,3.787109375,0.22265625,8,0,10,63,11,1164.49426269531,911.869323730469,0,1,faces,female,0,1,faces,A,female,VS,I,77,E01,319.341796875
0,1,0,25369,0.6484375,0.23046875,1,1,7,38,3,966.431823730469,286.187072753906,0,1,objects,big,0,1,faces,A,female,EX,F,78,E01,323.541015625
0,1,0,25370,0.935546875,0.2890625,2,1,3,10,4,658.089965820312,162.71044921875,0,1,faces,female,0,1,faces,A,female,EX,F,78,E01,323.541015625
0,1,1,25372,1.482421875,0.173828125,3,1,12,58,6,1124.59558105469,405.343566894531,0,1,faces,female,0,1,faces,A,female,EX,F,78,E01,323.541015625
0,1,0,25375,2.322265625,0.232421875,4,1,14,68,9,1296.15612792969,532.727600097656,0,1,faces,male,0,1,faces,A,female,EX,F,78,E01,323.541015625
0,1,0,25379,3.080078125,0.294921875,5,0,2,6,13,520.209655761719,623.304260253906,0,1,faces,male,0,1,faces,A,female,EX,F,78,E01,323.541015625
0,1,0,25396,0.1328125,0.3984375,1,1,3,20,1,774.414672851562,244.485107421875,0,1,objects,small,1,1,objects,P,small,VS,O,79,E01,327.740234375
0,1,0,25397,0.634765625,0.259765625,2,1,10,57,2,1168.78063964844,339.539581298828,0,1,faces,female,1,1,objects,P,small,VS,O,79,E01,327.740234375
0,1,0,25398,0.939453125,0.291015625,3,1,9,49,3,1110.05383300781,417.940612792969,0,1,faces,male,1,1,objects,P,small,VS,O,79,E01,327.740234375
1,1,0,25399,1.3203125,0.171875,4,1,5,25,4,725.814636230469,751.6787109375,1,0,NaN,NaN,1,1,objects,P,small,VS,O,79,E01,327.740234375
0,1,0,25400,1.544921875,0.12109375,5,0,1,8,5,582.695068359375,811.261291503906,0,1,faces,male,1,1,objects,P,small,VS,O,79,E01,327.740234375
2,0,1,25402,1.9140625,0.896484375,6,0,5,25,7,743.307556152344,737.402526855469,1,0,NaN,NaN,1,1,objects,P,small,VS,O,79,E01,327.740234375
0,1,1,25418,0.72265625,0.126953125,1,1,9,38,2,946.107543945312,265.641662597656,0,1,faces,male,1,1,objects,P,big,VS,O,80,E01,331.939453125
0,1,1,25421,1.27734375,0.150390625,2,1,11,56,5,1132.85607910156,233.787033081055,0,1,faces,male,1,1,objects,P,big,VS,O,80,E01,331.939453125
0,0,1,25424,1.85546875,0.2109375,3,1,6,21,8,778.805358886719,331.895477294922,1,0,NaN,NaN,1,1,objects,P,big,VS,O,80,E01,331.939453125
0,0,0,25428,3.578125,0.138671875,4,1,7,24,12,734.587158203125,618.5146484375,0,1,objects,small,1,1,objects,P,big,VS,O,80,E01,331.939453125
1,1,0,25450,0.2890625,0.294921875,1,1,9,51,2,1048.62194824219,630.634887695312,0,1,faces,female,0,1,faces,A,female,EX,I,81,E01,336.138671875
0,1,1,25451,0.6484375,0.19140625,2,1,6,30,3,849.097106933594,372.857452392578,0,1,objects,small,0,1,faces,A,female,EX,I,81,E01,336.138671875
2,1,1,25455,1.9609375,0.185546875,3,1,9,51,7,1074.68859863281,627.563781738281,0,1,faces,female,0,1,faces,A,female,EX,I,81,E01,336.138671875
0,1,0,25457,2.642578125,0.212890625,4,1,2,15,9,700.583068847656,661.958129882812,0,1,faces,male,0,1,faces,A,female,EX,I,81,E01,336.138671875
0,1,0,25458,2.90234375,0.283203125,5,0,3,16,10,651.298828125,731.389404296875,0,1,objects,small,0,1,faces,A,female,EX,I,81,E01,336.138671875
0,1,0,25460,3.42578125,0.115234375,6,0,7,35,12,833.505493164062,853.928771972656,0,1,faces,female,0,1,faces,A,female,EX,I,81,E01,336.138671875
0,1,0,25461,3.6015625,0.1484375,7,0,10,53,13,1026.37268066406,851.010498046875,0,1,objects,big,0,1,faces,A,female,EX,I,81,E01,336.138671875
0,1,0,25462,3.845703125,0.1328125,8,0,15,81,14,1350.50866699219,921.855224609375,0,1,faces,female,0,1,faces,A,female,EX,I,81,E01,336.138671875
0,1,0,25479,0.328125,0.1796875,1,1,9,50,1,1071.78198242188,517.65576171875,0,1,faces,female,0,0,faces,P,female,VS,F,82,E01,340.337890625
0,1,0,25482,1.14453125,0.30859375,2,1,8,48,4,1042.85913085938,344.164001464844,0,1,faces,female,0,0,faces,P,female,VS,F,82,E01,340.337890625
0,1,1,25483,1.50390625,0.189453125,3,1,12,57,5,1189.7392578125,359.590484619141,0,1,faces,male,0,0,faces,P,female,VS,F,82,E01,340.337890625
0,1,0,25485,1.955078125,0.275390625,4,1,4,23,7,784.447326660156,531.89990234375,0,1,faces,male,0,0,faces,P,female,VS,F,82,E01,340.337890625
0,1,1,25487,3.130859375,0.1796875,5,0,15,79,9,1393.34753417969,776.770324707031,0,1,faces,male,0,0,faces,P,female,VS,F,82,E01,340.337890625
0,1,0,25508,0.767578125,0.220703125,1,1,1,10,3,659.157287597656,189.785247802734,0,1,faces,male,0,1,faces,A,male,VS,I,83,E01,344.537109375
0,1,0,25509,1.03515625,0.169921875,2,1,2,11,4,649.567138671875,261.710052490234,0,1,objects,small,0,1,faces,A,male,VS,I,83,E01,344.537109375
0,1,0,25510,1.2578125,0.24609375,3,1,3,13,5,673.773193359375,417.258270263672,0,1,faces,female,0,1,faces,A,male,VS,I,83,E01,344.537109375
0,1,0,25511,1.5546875,0.248046875,4,1,8,31,6,853.192932128906,443.381225585938,0,1,objects,small,0,1,faces,A,male,VS,I,83,E01,344.537109375
0,1,0,25512,1.861328125,0.3203125,5,0,6,24,7,763.790771484375,656.367492675781,0,1,faces,female,0,1,faces,A,male,VS,I,83,E01,344.537109375
0,1,0,25513,2.31640625,0.1328125,6,0,10,52,8,1018.34820556641,770.666870117188,0,1,faces,male,0,1,faces,A,male,VS,I,83,E01,344.537109375
1,1,0,25514,2.5,0.193359375,7,0,11,53,9,1083.18017578125,873.522338867188,0,1,objects,big,0,1,faces,A,male,VS,I,83,E01,344.537109375
0,1,1,25515,2.765625,0.134765625,8,0,4,18,10,686.312744140625,972.168334960938,0,1,faces,female,0,1,faces,A,male,VS,I,83,E01,344.537109375
0,1,0,25517,3.109375,0.154296875,9,0,12,54,12,1035.51330566406,933.08447265625,0,1,faces,male,0,1,faces,A,male,VS,I,83,E01,344.537109375
2,1,0,25518,3.30859375,0.255859375,10,0,11,53,13,1061.404296875,843.803405761719,0,1,objects,big,0,1,faces,A,male,VS,I,83,E01,344.537109375
0,1,0,25534,0.5625,0.1484375,1,1,15,77,2,1321.32800292969,503.843383789062,0,1,objects,small,0,1,objects,A,small,EX,O,84,E01,348.736328125
0,1,0,25538,1.83203125,0.23046875,2,1,6,42,6,978.77392578125,647.056518554688,0,1,faces,female,0,1,objects,A,small,EX,O,84,E01,348.736328125
0,1,1,25540,2.4140625,0.30859375,3,1,1,7,8,575.659118652344,757.824096679688,0,1,faces,female,0,1,objects,A,small,EX,O,84,E01,348.736328125
0,1,0,25561,0.451171875,0.138671875,1,1,4,20,2,710.522033691406,258.257110595703,0,1,objects,small,1,1,faces,P,female,VS,I,85,E01,352.935546875
0,1,0,25562,0.642578125,0.181640625,2,1,7,28,3,837.283325195312,177.401565551758,0,1,faces,female,1,1,faces,P,female,VS,I,85,E01,352.935546875
0,1,0,25563,0.919921875,0.302734375,3,1,1,2,4,583.384399414062,238.555419921875,0,1,faces,female,1,1,faces,P,female,VS,I,85,E01,352.935546875
0,0,1,25564,1.26953125,0.251953125,4,1,2,12,5,657.571411132812,338.307830810547,1,0,NaN,NaN,1,1,faces,P,female,VS,I,85,E01,352.935546875
0,1,0,25590,0.33203125,0.134765625,1,1,7,38,2,924.680236816406,278.121948242188,0,1,faces,female,1,1,faces,P,female,VS,I,86,E01,357.134765625
0,1,1,25591,0.53125,0.314453125,2,1,12,65,3,1242.96044921875,207.985778808594,0,1,faces,male,1,1,faces,P,female,VS,I,86,E01,357.134765625
0,1,0,25594,1.564453125,0.294921875,3,1,13,67,6,1248.97082519531,459.626647949219,0,1,faces,female,1,1,faces,P,female,VS,I,86,E01,357.134765625
0,1,0,25595,1.9375,0.140625,4,1,10,60,7,1149.59606933594,606.515380859375,0,1,objects,big,1,1,faces,P,female,VS,I,86,E01,357.134765625
0,1,0,25596,2.15234375,0.126953125,5,0,4,24,8,774.657958984375,629.412353515625,0,1,objects,small,1,1,faces,P,female,VS,I,86,E01,357.134765625
0,1,1,25599,2.693359375,0.177734375,6,0,14,78,11,1364.48254394531,640.678894042969,1,0,NaN,NaN,1,1,faces,P,female,VS,I,86,E01,357.134765625
0,1,1,25611,0.859375,0.16796875,1,1,3,11,2,677.866149902344,204.945449829102,0,1,faces,female,0,1,faces,A,male,EX,F,87,E01,361.333984375
0,1,0,25612,1.9140625,0.138671875,2,1,9,47,3,1051.50573730469,232.152923583984,0,1,faces,male,0,1,faces,A,male,EX,F,87,E01,361.333984375
0,1,0,25615,2.619140625,0.15625,3,1,10,49,6,1045.49597167969,428.857421875,0,1,faces,male,0,1,faces,A,male,EX,F,87,E01,361.333984375
0,1,0,25616,2.83984375,0.123046875,4,1,7,31,7,893.117858886719,447.912475585938,0,1,objects,small,0,1,faces,A,male,EX,F,87,E01,361.333984375
0,1,1,25617,3.06640625,0.12890625,5,0,6,16,8,673.766235351562,719.441833496094,0,1,objects,big,0,1,faces,A,male,EX,F,87,E01,361.333984375
0,1,0,25645,0.904296875,0.158203125,1,1,6,38,2,966.601440429688,263.580902099609,0,1,faces,male,0,1,objects,A,big,EX,O,88,E01,365.533203125
0,1,0,25649,1.822265625,0.15625,2,1,3,24,6,781.281860351562,622.606323242188,0,1,faces,female,0,1,objects,A,big,EX,O,88,E01,365.533203125
0,1,0,25651,2.240234375,0.193359375,3,1,14,77,8,1360.52258300781,551.388366699219,0,1,objects,small,0,1,objects,A,big,EX,O,88,E01,365.533203125
0,1,1,25652,2.5078125,0.28515625,4,1,12,70,9,1259.26342773438,743.046936035156,0,1,faces,female,0,1,objects,A,big,EX,O,88,E01,365.533203125
0,1,0,25654,2.962890625,0.208984375,5,0,10,62,11,1163.50952148438,823.302551269531,0,1,faces,female,0,1,objects,A,big,EX,O,88,E01,365.533203125
0,1,1,25655,3.27734375,0.228515625,6,0,5,35,12,815.947265625,823.213745117188,0,1,faces,male,0,1,objects,A,big,EX,O,88,E01,365.533203125
0,1,0,25657,3.875,0.2109375,7,0,9,54,14,1046.17785644531,904.244079589844,0,1,faces,female,0,1,objects,A,big,EX,O,88,E01,365.533203125
0,1,0,25673,0.287109375,0.265625,1,1,5,22,1,754.437255859375,455.000762939453,0,1,faces,female,1,1,objects,P,big,VS,O,89,E01,369.732421875
0,0,1,25676,0.98046875,0.294921875,2,1,8,50,4,1053.63427734375,549.212463378906,1,0,NaN,NaN,1,1,objects,P,big,VS,O,89,E01,369.732421875
0,1,1,25704,1.15234375,0.17578125,1,1,14,65,5,1309.17321777344,218.798629760742,0,1,objects,small,1,0,faces,P,female,VS,F,90,E01,373.931640625
0,1,0,25706,1.5703125,0.341796875,2,1,2,11,7,652.756591796875,252.812881469727,0,1,faces,female,1,0,faces,P,female,VS,F,90,E01,373.931640625
0,1,0,25707,1.951171875,0.146484375,3,1,4,20,8,739.681884765625,266.067535400391,0,1,faces,male,1,0,faces,P,female,VS,F,90,E01,373.931640625
0,1,0,25708,2.166015625,0.146484375,4,1,7,49,9,1077.32556152344,399.494903564453,0,1,objects,big,1,0,faces,P,female,VS,F,90,E01,373.931640625
0,1,1,25709,2.359375,0.119140625,5,0,10,58,10,1112.27795410156,457.897369384766,1,0,NaN,NaN,1,0,faces,P,female,VS,F,90,E01,373.931640625
0,1,0,25711,2.685546875,0.234375,6,0,11,60,12,1131.12622070312,633.563842773438,0,1,faces,male,1,0,faces,P,female,VS,F,90,E01,373.931640625
0,1,1,25712,2.9921875,0.14453125,7,0,12,61,13,1170.71960449219,785.380554199219,0,1,faces,male,1,0,faces,P,female,VS,F,90,E01,373.931640625
0,1,0,25714,3.2890625,0.27734375,8,0,5,27,15,750.392944335938,953.913635253906,0,1,faces,male,1,0,faces,P,female,VS,F,90,E01,373.931640625
0,1,1,25715,3.611328125,0.146484375,9,0,3,18,16,651.059753417969,958.955749511719,0,1,faces,male,1,0,faces,P,female,VS,F,90,E01,373.931640625
0,1,0,25717,3.927734375,0.119140625,10,0,13,63,18,1126.833984375,923.530334472656,0,1,faces,female,1,0,faces,P,female,VS,F,90,E01,373.931640625
1,1,0,25738,0.416015625,0.109375,1,1,8,47,3,1031.44860839844,276.069732666016,1,0,NaN,NaN,1,1,faces,P,male,VS,F,91,E01,378.130859375
0,1,0,25739,0.576171875,0.251953125,2,1,12,65,4,1288.14086914062,274.851623535156,0,1,faces,female,1,1,faces,P,male,VS,F,91,E01,378.130859375
2,1,1,25740,0.95703125,0.162109375,3,1,8,47,5,1085.98706054688,262.123809814453,1,0,NaN,NaN,1,1,faces,P,male,VS,F,91,E01,378.130859375
3,0,1,25744,1.974609375,0.236328125,4,1,8,47,9,1080.24938964844,262.845581054688,1,0,NaN,NaN,1,1,faces,P,male,VS,F,91,E01,378.130859375
0,1,0,25767,0.80859375,0.271484375,1,1,7,46,4,1043.29309082031,187.611679077148,0,1,objects,small,0,0,faces,A,male,VS,F,92,E01,382.330078125
1,1,1,25772,1.943359375,0.1484375,2,1,14,76,9,1326.1064453125,412.916809082031,0,1,faces,female,0,0,faces,A,male,VS,F,92,E01,382.330078125
0,1,1,25773,2.126953125,0.216796875,3,1,12,67,10,1267.04138183594,414.973419189453,0,1,faces,male,0,0,faces,A,male,VS,F,92,E01,382.330078125
2,1,1,25775,2.5546875,0.15234375,4,1,14,76,12,1389.42834472656,450.652679443359,0,1,faces,female,0,0,faces,A,male,VS,F,92,E01,382.330078125
0,1,1,25778,3.369140625,0.18359375,5,0,4,41,15,974.772705078125,548.089172363281,0,1,faces,male,0,0,faces,A,male,VS,F,92,E01,382.330078125
0,1,0,25780,3.9453125,0.15234375,6,0,5,42,17,955.868469238281,641.398986816406,0,1,faces,male,0,0,faces,A,male,VS,F,92,E01,382.330078125
0,1,0,25796,0.603515625,0.123046875,1,1,8,37,2,969.458129882812,184.667663574219,0,1,faces,female,0,0,faces,P,male,VS,I,93,E01,386.529296875
0,1,0,25798,1.181640625,0.142578125,2,1,9,40,4,930.115234375,421.779571533203,0,1,objects,small,0,0,faces,P,male,VS,I,93,E01,386.529296875
