refix,pretarget,multifix,urevent,tonset,dur_added,rank,first_rank,stposrel,stposabs,n,x,y,istarget,isdistractor,distractor_cat,ditractor_atr,trial_targetseen,trial_correct,trial_cat,trial_resp,trial_atr,trial_type,trial_cattype,trial_number,trial_subject,trial_bgn_latency
0,1,0,20480,0.20703125,0.10546875,1,1,10,49,1,1080.47534179688,418.066528320312,0,1,faces,male,0,1,objects,A,big,VS,O,1,E03,0.201171875
1,1,1,20482,0.580078125,0.173828125,2,1,2,2,3,597.696166992188,209.857879638672,0,1,objects,small,0,1,objects,A,big,VS,O,1,E03,0.201171875
0,1,0,20485,1.19140625,0.248046875,3,1,8,24,6,763.282531738281,615.494567871094,0,1,objects,big,0,1,objects,A,big,VS,O,1,E03,0.201171875
0,1,0,20486,1.505859375,0.248046875,4,1,7,18,7,657.356384277344,930.869384765625,0,1,objects,big,0,1,objects,A,big,VS,O,1,E03,0.201171875
0,1,0,20487,1.82421875,0.212890625,5,0,11,54,8,1045.4482421875,914.403747558594,0,1,objects,small,0,1,objects,A,big,VS,O,1,E03,0.201171875
0,1,0,20490,2.546875,0.166015625,6,0,15,75,11,1365.6826171875,330.055511474609,0,1,faces,female,0,1,objects,A,big,VS,O,1,E03,0.201171875
1,1,0,20491,2.806640625,0.12109375,7,0,3,6,12,608.618591308594,668.489440917969,0,1,faces,male,0,1,objects,A,big,VS,O,1,E03,0.201171875
0,1,0,20492,2.951171875,0.158203125,8,0,4,7,13,554.487365722656,706.192932128906,0,1,faces,male,0,1,objects,A,big,VS,O,1,E03,0.201171875
2,1,0,20493,3.13671875,0.19921875,9,0,3,6,14,571.595275878906,617.49169921875,0,1,faces,male,0,1,objects,A,big,VS,O,1,E03,0.201171875
2,1,0,20494,3.388671875,0.376953125,10,0,2,2,15,566.312072753906,231.333724975586,0,1,objects,small,0,1,objects,A,big,VS,O,1,E03,0.201171875
0,1,0,20495,3.83984375,0.263671875,11,0,5,12,16,657.308166503906,316.273254394531,0,1,faces,female,0,1,objects,A,big,VS,O,1,E03,0.201171875
1,1,0,20512,0.021484375,0.173828125,1,1,10,39,1,915.222778320312,385.681823730469,0,1,faces,female,0,0,faces,A,female,VS,I,2,E03,4.400390625
1,1,0,20513,0.236328125,0.15234375,2,1,12,49,2,1047.29431152344,395.404937744141,0,1,faces,female,0,0,faces,A,female,VS,I,2,E03,4.400390625
2,1,0,20514,0.42578125,0.10546875,3,1,10,39,3,957.317504882812,307.154296875,0,1,faces,female,0,0,faces,A,female,VS,I,2,E03,4.400390625
2,1,1,20515,0.56640625,0.20703125,4,1,12,49,4,1073.21936035156,400.05615234375,0,1,faces,female,0,0,faces,A,female,VS,I,2,E03,4.400390625
3,1,0,20519,1.59375,0.234375,5,0,10,39,8,985.536315917969,332.900726318359,0,1,faces,female,0,0,faces,A,female,VS,I,2,E03,4.400390625
0,1,0,20520,1.9296875,0.109375,6,0,8,33,9,856.210876464844,672.981750488281,0,1,faces,female,0,0,faces,A,female,VS,I,2,E03,4.400390625
0,1,0,20521,2.107421875,0.11328125,7,0,2,8,10,593.300109863281,837.336364746094,0,1,faces,male,0,0,faces,A,female,VS,I,2,E03,4.400390625
0,1,0,20522,2.296875,0.314453125,8,0,3,9,11,553.3154296875,896.058837890625,0,1,faces,female,0,0,faces,A,female,VS,I,2,E03,4.400390625
0,1,1,20523,2.69921875,0.119140625,9,0,15,70,12,1245.66723632812,742.615112304688,0,1,objects,big,0,0,faces,A,female,VS,I,2,E03,4.400390625
0,1,0,20525,3.033203125,0.185546875,10,0,13,53,14,1057.61401367188,813.152770996094,0,1,faces,female,0,0,faces,A,female,VS,I,2,E03,4.400390625
0,1,0,20527,3.455078125,0.138671875,11,0,4,10,16,646.184753417969,130.144180297852,0,1,objects,small,0,0,faces,A,female,VS,I,2,E03,4.400390625
0,1,1,20530,3.92578125,0.111328125,12,0,7,29,19,867.573669433594,225.218780517578,0,1,faces,male,0,0,faces,A,female,VS,I,2,E03,4.400390625
0,1,1,20548,0.30859375,0.134765625,1,1,1,3,3,569.112915039062,356.969360351562,0,1,objects,big,0,1,faces,A,female,VS,F,3,E03,8.599609375
0,1,1,20551,0.712890625,0.20703125,2,1,4,22,6,767.610107421875,424.478149414062,0,1,faces,female,0,1,faces,A,female,VS,F,3,E03,8.599609375
1,1,0,20552,0.986328125,0.197265625,3,1,5,25,7,776.727478027344,731.416625976562,0,1,faces,female,0,1,faces,A,female,VS,F,3,E03,8.599609375
1,1,0,20553,1.23046875,0.109375,4,1,7,34,8,860.804992675781,731.173034667969,0,1,faces,male,0,1,faces,A,female,VS,F,3,E03,8.599609375
0,1,1,20554,1.42578125,0.15234375,5,0,15,81,9,1388.80285644531,927.145324707031,0,1,faces,female,0,1,faces,A,female,VS,F,3,E03,8.599609375
0,1,1,20556,1.796875,0.134765625,6,0,14,75,11,1354.51708984375,310.118621826172,0,1,objects,small,0,1,faces,A,female,VS,F,3,E03,8.599609375
1,1,0,20558,2.076171875,0.1953125,7,0,13,74,13,1372.63598632812,211.696487426758,0,1,faces,female,0,1,faces,A,female,VS,F,3,E03,8.599609375
0,1,0,20559,2.294921875,0.26171875,8,0,12,73,14,1378.48718261719,153.521057128906,0,1,faces,female,0,1,faces,A,female,VS,F,3,E03,8.599609375
0,1,0,20560,2.62890625,0.33984375,9,0,10,64,15,1296.27941894531,131.312515258789,0,1,faces,female,0,1,faces,A,female,VS,F,3,E03,8.599609375
2,1,0,20561,3.001953125,0.283203125,10,0,13,74,16,1388.15881347656,237.413360595703,0,1,faces,female,0,1,faces,A,female,VS,F,3,E03,8.599609375
2,1,1,20562,3.380859375,0.119140625,11,0,7,34,17,868.334899902344,731.282958984375,0,1,faces,male,0,1,faces,A,female,VS,F,3,E03,8.599609375
2,1,0,20564,3.642578125,0.240234375,12,0,5,25,19,754.128967285156,718.011291503906,0,1,faces,female,0,1,faces,A,female,VS,F,3,E03,8.599609375
0,1,0,20565,3.91015625,0.1328125,13,0,3,16,20,667.84619140625,730.919311523438,0,1,faces,male,0,1,faces,A,female,VS,F,3,E03,8.599609375
0,1,1,20577,0.337890625,0.154296875,1,1,10,39,1,949.428588867188,294.546142578125,0,1,objects,small,0,0,faces,A,male,EX,I,4,E03,12.798828125
0,1,1,20583,0.966796875,0.123046875,2,1,7,30,7,862.272705078125,327.098266601562,0,1,faces,male,0,0,faces,A,male,EX,I,4,E03,12.798828125
0,1,0,20585,1.248046875,0.13671875,3,1,9,37,9,930.089538574219,175.528518676758,0,1,faces,female,0,0,faces,A,male,EX,I,4,E03,12.798828125
0,1,1,20586,1.5625,0.1015625,4,1,2,11,10,673.876708984375,214.401092529297,0,1,objects,small,0,0,faces,A,male,EX,I,4,E03,12.798828125
1,1,1,20589,2.078125,0.166015625,5,0,5,25,13,720.126953125,715.598693847656,0,1,faces,female,0,0,faces,A,male,EX,I,4,E03,12.798828125
2,1,1,20592,2.484375,0.130859375,6,0,5,25,16,752.12744140625,718.865661621094,0,1,faces,female,0,0,faces,A,male,EX,I,4,E03,12.798828125
0,1,1,20593,2.693359375,0.15234375,7,0,14,70,17,1263.82580566406,701.814392089844,0,1,faces,female,0,0,faces,A,male,EX,I,4,E03,12.798828125
0,1,1,20595,3.140625,0.13671875,8,0,13,65,19,1215.29809570312,255.634368896484,0,1,objects,big,0,0,faces,A,male,EX,I,4,E03,12.798828125
0,1,0,20620,0.34765625,0.232421875,1,1,9,49,2,1065.34533691406,400.484039306641,0,1,faces,female,0,1,objects,A,big,EX,O,5,E03,16.998046875
0,1,1,20621,0.681640625,0.12109375,2,1,6,29,3,878.026062011719,206.368667602539,0,1,faces,female,0,1,objects,A,big,EX,O,5,E03,16.998046875
1,1,1,20623,1.0625,0.26953125,3,1,8,47,5,1068.68774414062,221.694915771484,0,1,faces,male,0,1,objects,A,big,EX,O,5,E03,16.998046875
0,1,1,20626,1.73046875,0.212890625,4,1,5,24,8,764.259216308594,612.48974609375,0,1,faces,female,0,1,objects,A,big,EX,O,5,E03,16.998046875
0,1,1,20628,2.2578125,0.1484375,5,0,3,15,10,685.518981933594,609.188842773438,0,1,faces,male,0,1,objects,A,big,EX,O,5,E03,16.998046875
0,1,0,20630,2.662109375,0.306640625,6,0,2,13,12,656.740661621094,436.605529785156,0,1,faces,male,0,1,objects,A,big,EX,O,5,E03,16.998046875
2,1,1,20631,3.04296875,0.32421875,7,0,8,47,13,1069.27197265625,242.186935424805,0,1,faces,male,0,1,objects,A,big,EX,O,5,E03,16.998046875
0,1,1,20634,3.80078125,0.154296875,8,0,14,70,16,1293.90747070312,693.815246582031,0,1,faces,male,0,1,objects,A,big,EX,O,5,E03,16.998046875
0,1,1,20654,0.2734375,0.1171875,1,1,7,44,1,1002.81365966797,810.116333007812,0,1,faces,female,0,1,faces,P,male,VS,F,6,E03,21.197265625
0,1,0,20656,0.68359375,0.19921875,2,1,6,36,3,863.40234375,916.009826660156,0,1,faces,male,0,1,faces,P,male,VS,F,6,E03,21.197265625
0,1,1,20658,1.119140625,0.12109375,3,1,1,8,5,552.949829101562,818.890380859375,0,1,faces,female,0,1,faces,P,male,VS,F,6,E03,21.197265625
0,1,0,20661,1.611328125,0.15234375,4,1,5,28,8,881.092834472656,132.875289916992,0,1,objects,big,0,1,faces,P,male,VS,F,6,E03,21.197265625
0,1,0,20677,0.2734375,0.197265625,1,1,11,59,1,1160.61840820312,516.366577148438,0,1,faces,male,1,1,objects,P,small,VS,O,7,E03,25.396484375
0,1,0,20681,2.705078125,0.126953125,2,1,8,37,5,963.116516113281,172.405670166016,0,1,faces,female,1,1,objects,P,small,VS,O,7,E03,25.396484375
0,0,0,20683,3.232421875,0.63671875,3,1,13,71,7,1259.32446289062,846.411437988281,1,0,NaN,NaN,1,1,objects,P,small,VS,O,7,E03,25.396484375
0,1,0,20701,0.380859375,0.3359375,1,1,4,30,2,868.983581542969,347.940002441406,0,1,faces,male,0,1,objects,A,small,EX,O,8,E03,29.595703125
0,1,1,20703,0.986328125,0.12890625,2,1,11,59,4,1159.25988769531,536.87451171875,0,1,objects,small,0,1,objects,A,small,EX,O,8,E03,29.595703125
0,1,0,20705,1.505859375,0.1015625,3,1,12,61,6,1136.63891601562,746.738586425781,0,1,faces,female,0,1,objects,A,small,EX,O,8,E03,29.595703125
0,1,1,20706,2.365234375,0.173828125,4,1,5,31,7,877.677307128906,440.842315673828,0,1,objects,small,0,1,objects,A,small,EX,O,8,E03,29.595703125
0,1,0,20708,2.68359375,0.20703125,5,0,7,49,9,1068.63061523438,432.311920166016,0,1,faces,male,0,1,objects,A,small,EX,O,8,E03,29.595703125
0,1,1,20735,0.939453125,0.150390625,1,1,11,64,5,1272.45642089844,151.920562744141,0,1,faces,female,1,1,faces,P,male,VS,F,9,E03,33.794921875
0,1,1,20737,1.328125,0.181640625,2,1,13,68,7,1275.86474609375,544.43408203125,0,1,faces,female,1,1,faces,P,male,VS,F,9,E03,33.794921875
0,1,1,20740,1.7890625,0.130859375,3,1,12,66,10,1281.30236816406,336.554260253906,0,1,faces,male,1,1,faces,P,male,VS,F,9,E03,33.794921875
0,1,0,20741,1.986328125,0.2421875,4,1,14,69,11,1274.37976074219,643.816772460938,0,1,faces,male,1,1,faces,P,male,VS,F,9,E03,33.794921875
0,1,0,20743,2.42578125,0.2578125,5,0,9,54,13,1065.54467773438,928.484069824219,0,1,faces,male,1,1,faces,P,male,VS,F,9,E03,33.794921875
1,1,1,20744,2.755859375,0.146484375,6,0,2,9,14,561.962890625,945.524597167969,1,0,NaN,NaN,1,1,faces,P,male,VS,F,9,E03,33.794921875
0,1,1,20746,3.08203125,0.109375,7,0,8,52,16,1011.94671630859,742.633483886719,0,1,faces,male,1,1,faces,P,male,VS,F,9,E03,33.794921875
2,0,1,20749,3.625,0.310546875,8,0,2,9,19,553.982421875,939.8125,1,0,NaN,NaN,1,1,faces,P,male,VS,F,9,E03,33.794921875
0,1,1,20757,0.09375,0.123046875,1,1,10,40,1,944.514221191406,457.747894287109,0,1,faces,female,1,1,faces,P,female,VS,I,10,E03,37.994140625
1,1,0,20761,0.7421875,0.177734375,2,1,9,37,5,957.55908203125,149.768417358398,0,1,faces,male,1,1,faces,P,female,VS,I,10,E03,37.994140625
0,1,0,20762,0.9765625,0.216796875,3,1,8,29,6,876.882446289062,243.882568359375,0,1,faces,male,1,1,faces,P,female,VS,I,10,E03,37.994140625
1,0,1,20763,1.24609375,0.3125,4,1,3,20,7,788.658386230469,257.252838134766,1,0,NaN,NaN,1,1,faces,P,female,VS,I,10,E03,37.994140625
0,0,0,20767,2.451171875,0.162109375,5,0,7,27,11,770.609680175781,926.748840332031,0,1,objects,small,1,1,faces,P,female,VS,I,10,E03,37.994140625
0,0,1,20768,2.6875,0.115234375,6,0,14,53,12,1050.08239746094,852.331909179688,0,1,faces,female,1,1,faces,P,female,VS,I,10,E03,37.994140625
2,0,1,20771,3.21875,0.384765625,7,0,3,20,15,759.223693847656,242.985763549805,1,0,NaN,NaN,1,1,faces,P,female,VS,I,10,E03,37.994140625
2,0,0,20774,3.865234375,0.154296875,8,0,9,37,18,959.121337890625,160.624618530273,0,1,faces,male,1,1,faces,P,female,VS,I,10,E03,37.994140625
0,1,0,20782,0.21484375,0.12890625,1,1,8,31,1,867.217407226562,393.814117431641,0,1,objects,small,0,1,faces,A,male,VS,I,11,E03,42.193359375
1,1,1,20783,0.380859375,0.154296875,2,1,5,21,2,753.514953613281,315.245941162109,0,1,faces,female,0,1,faces,A,male,VS,I,11,E03,42.193359375
0,1,0,20785,0.630859375,0.189453125,3,1,3,11,4,677.256591796875,212.511444091797,0,1,faces,male,0,1,faces,A,male,VS,I,11,E03,42.193359375
0,1,0,20786,0.857421875,0.2265625,4,1,1,1,5,578.521850585938,157.132095336914,0,1,faces,male,0,1,faces,A,male,VS,I,11,E03,42.193359375
1,1,0,20787,1.12890625,0.189453125,5,0,4,19,6,759.142395019531,147.540374755859,0,1,faces,male,0,1,faces,A,male,VS,I,11,E03,42.193359375
1,1,0,20788,1.404296875,0.123046875,6,0,11,34,7,850.86474609375,780.252319335938,0,1,faces,female,0,1,faces,A,male,VS,I,11,E03,42.193359375
0,1,0,20789,1.556640625,0.1953125,7,0,7,26,8,770.658813476562,818.714904785156,0,1,faces,female,0,1,faces,A,male,VS,I,11,E03,42.193359375
0,1,0,20790,1.779296875,0.20703125,8,0,6,25,9,766.479797363281,740.851867675781,0,1,faces,male,0,1,faces,A,male,VS,I,11,E03,42.193359375
2,1,0,20791,2.017578125,0.1484375,9,0,11,34,10,858.931457519531,738.654724121094,0,1,faces,female,0,1,faces,A,male,VS,I,11,E03,42.193359375
0,1,0,20792,2.19921875,0.14453125,10,0,10,33,11,878.682067871094,592.846923828125,0,1,objects,small,0,1,faces,A,male,VS,I,11,E03,42.193359375
0,1,1,20796,2.755859375,0.287109375,11,0,15,77,15,1395.03881835938,531.237854003906,0,1,faces,female,0,1,faces,A,male,VS,I,11,E03,42.193359375
2,1,0,20799,3.494140625,0.171875,12,0,5,21,18,781.882995605469,343.88037109375,0,1,faces,female,0,1,faces,A,male,VS,I,11,E03,42.193359375
2,1,1,20800,3.705078125,0.23046875,13,0,4,19,19,781.412231445312,150.488143920898,0,1,faces,male,0,1,faces,A,male,VS,I,11,E03,42.193359375
1,1,1,20822,0.26953125,0.150390625,1,1,4,19,2,764.833618164062,135.587127685547,0,1,faces,male,1,1,faces,P,male,VS,I,12,E03,46.392578125
2,1,1,20826,1.11328125,0.2421875,2,1,4,19,6,768.439758300781,138.867126464844,0,1,faces,male,1,1,faces,P,male,VS,I,12,E03,46.392578125
3,1,1,20828,1.453125,0.224609375,3,1,4,19,8,773.733764648438,137.619018554688,0,1,faces,male,1,1,faces,P,male,VS,I,12,E03,46.392578125
0,1,0,20830,1.849609375,0.18359375,4,1,8,46,10,1065.79455566406,152.003936767578,0,1,faces,female,1,1,faces,P,male,VS,I,12,E03,46.392578125
0,1,0,20832,2.30859375,0.177734375,5,0,14,79,12,1369.42346191406,731.149353027344,0,1,faces,female,1,1,faces,P,male,VS,I,12,E03,46.392578125
0,1,1,20833,2.572265625,0.119140625,6,0,9,49,13,1057.09838867188,414.093048095703,1,0,NaN,NaN,1,1,faces,P,male,VS,I,12,E03,46.392578125
0,1,1,20847,0.205078125,0.1015625,1,1,9,50,1,1051.56567382812,562.006225585938,0,1,faces,female,0,1,faces,A,male,EX,F,13,E03,50.591796875
0,1,1,20849,0.66015625,0.21875,2,1,5,22,3,763.919494628906,428.287261962891,0,1,faces,male,0,1,faces,A,male,EX,F,13,E03,50.591796875
0,1,0,20858,3.9609375,1.0078125,3,1,10,51,12,1088.25219726562,633.192749023438,0,1,objects,big,0,1,faces,A,male,EX,F,13,E03,50.591796875
0,1,1,20876,0.416015625,0.111328125,1,1,6,37,2,955.467468261719,146.041702270508,0,1,faces,male,1,1,faces,P,male,VS,I,14,E03,54.791015625
0,1,0,20877,0.578125,0.154296875,2,1,12,64,3,1266.65966796875,141.985900878906,0,1,faces,female,1,1,faces,P,male,VS,I,14,E03,54.791015625
0,1,0,20878,0.83984375,0.189453125,3,1,5,31,4,895.831115722656,432.4287109375,0,1,faces,female,1,1,faces,P,male,VS,I,14,E03,54.791015625
0,1,0,20879,1.0703125,0.146484375,4,1,8,49,5,1063.42248535156,435.182983398438,0,1,faces,female,1,1,faces,P,male,VS,I,14,E03,54.791015625
0,1,0,20880,1.259765625,0.150390625,5,0,13,66,6,1295.13940429688,368.942260742188,0,1,faces,female,1,1,faces,P,male,VS,I,14,E03,54.791015625
0,1,0,20885,2.037109375,0.193359375,6,0,9,54,11,1071.21057128906,938.291015625,0,1,faces,female,1,1,faces,P,male,VS,I,14,E03,54.791015625
0,1,1,20886,2.3046875,0.103515625,7,0,3,17,12,649.312561035156,882.624328613281,0,1,objects,big,1,1,faces,P,male,VS,I,14,E03,54.791015625
1,0,1,20889,2.73046875,0.2578125,8,0,4,23,15,756.859008789062,533.646301269531,1,0,NaN,NaN,1,1,faces,P,male,VS,I,14,E03,54.791015625
2,0,1,20893,3.771484375,0.62109375,9,0,4,23,19,776.141906738281,525.943908691406,1,0,NaN,NaN,1,1,faces,P,male,VS,I,14,E03,54.791015625
1,1,1,20904,0.384765625,0.158203125,1,1,2,23,2,763.822021484375,546.756774902344,1,0,NaN,NaN,1,1,faces,P,female,VS,I,15,E03,58.990234375
0,0,1,20911,1.751953125,0.18359375,2,1,1,20,9,766.424011230469,275.427062988281,0,1,faces,male,1,1,faces,P,female,VS,I,15,E03,58.990234375
0,0,0,20913,2.234375,0.2890625,3,1,10,67,11,1274.55407714844,451.087158203125,0,1,faces,female,1,1,faces,P,female,VS,I,15,E03,58.990234375
2,0,0,20914,3.34375,0.26953125,4,1,2,23,12,742.826782226562,562.134765625,1,0,NaN,NaN,1,1,faces,P,female,VS,I,15,E03,58.990234375
0,0,0,20916,3.884765625,0.203125,5,0,12,71,14,1246.48046875,852.600158691406,0,1,faces,male,1,1,faces,P,female,VS,I,15,E03,58.990234375
0,1,1,20926,0.123046875,0.140625,1,1,10,48,1,1073.93603515625,369.146331787109,0,1,faces,male,1,1,faces,P,male,VS,F,16,E03,63.189453125
1,1,1,20928,0.68359375,0.14453125,2,1,4,29,3,846.143493652344,269.274536132812,1,0,NaN,NaN,1,1,faces,P,male,VS,F,16,E03,63.189453125
2,0,1,20932,1.4296875,0.30078125,3,1,4,29,7,860.357666015625,271.851196289062,1,0,NaN,NaN,1,1,faces,P,male,VS,F,16,E03,63.189453125
0,0,1,20937,2.935546875,0.236328125,4,1,14,76,12,1363.490234375,446.129943847656,0,1,faces,male,1,1,faces,P,male,VS,F,16,E03,63.189453125
0,0,1,20938,3.216796875,0.123046875,5,0,15,79,13,1392.81481933594,699.1767578125,0,1,faces,male,1,1,faces,P,male,VS,F,16,E03,63.189453125
0,0,0,20941,3.810546875,0.1640625,6,0,6,36,16,832.675231933594,926.881164550781,0,1,objects,big,1,1,faces,P,male,VS,F,16,E03,63.189453125
1,1,1,20951,0.25,0.162109375,1,1,9,40,2,958.847534179688,451.135528564453,0,1,objects,big,0,1,objects,A,big,VS,O,17,E03,67.388671875
0,1,0,20953,0.64453125,0.271484375,2,1,8,38,4,939.342834472656,235.076034545898,0,1,objects,small,0,1,objects,A,big,VS,O,17,E03,67.388671875
1,1,1,20955,1.1171875,0.12109375,3,1,1,1,6,576.247741699219,177.789138793945,0,1,objects,big,0,1,objects,A,big,VS,O,17,E03,67.388671875
2,1,1,20957,1.34765625,0.138671875,4,1,1,1,8,560.382507324219,170.876953125,0,1,objects,big,0,1,objects,A,big,VS,O,17,E03,67.388671875
0,1,0,20959,1.779296875,0.1484375,5,0,11,44,10,947.45556640625,875.82373046875,0,1,objects,small,0,1,objects,A,big,VS,O,17,E03,67.388671875
0,1,1,20960,1.958984375,0.189453125,6,0,12,54,11,1049.05981445312,925.248474121094,0,1,faces,male,0,1,objects,A,big,VS,O,17,E03,67.388671875
0,1,1,20962,2.322265625,0.310546875,7,0,15,63,13,1148.32250976562,944.71533203125,0,1,objects,big,0,1,objects,A,big,VS,O,17,E03,67.388671875
0,1,1,20964,2.798828125,0.173828125,8,0,5,16,15,617.328125,715.570068359375,0,1,faces,male,0,1,objects,A,big,VS,O,17,E03,67.388671875
1,1,0,20967,3.34765625,0.12109375,9,0,10,41,18,959.556945800781,518.88134765625,0,1,faces,female,0,1,objects,A,big,VS,O,17,E03,67.388671875
2,1,0,20968,3.4921875,0.234375,10,0,9,40,19,968.257141113281,457.516418457031,0,1,objects,big,0,1,objects,A,big,VS,O,17,E03,67.388671875
2,1,0,20969,3.76171875,0.130859375,11,0,10,41,20,976.475036621094,551.921752929688,0,1,faces,female,0,1,objects,A,big,VS,O,17,E03,67.388671875
0,1,0,20982,0.21875,0.12109375,1,1,6,40,1,997.46435546875,401.900360107422,0,1,objects,small,1,1,faces,P,female,VS,I,18,E03,71.587890625
0,1,0,20983,0.37109375,0.1171875,2,1,9,48,2,1041.80651855469,378.630340576172,0,1,objects,small,1,1,faces,P,female,VS,I,18,E03,71.587890625
0,0,1,20984,0.513671875,0.29296875,3,1,10,49,3,1070.83898925781,456.908966064453,1,0,NaN,NaN,1,1,faces,P,female,VS,I,18,E03,71.587890625
1,1,0,21001,0.26953125,0.146484375,1,1,7,40,2,929.265930175781,459.3837890625,0,1,objects,big,1,1,objects,P,big,VS,O,19,E03,75.787109375
1,1,1,21003,0.525390625,0.111328125,2,1,6,39,4,963.385131835938,365.273559570312,1,0,NaN,NaN,1,1,objects,P,big,VS,O,19,E03,75.787109375
0,1,0,21004,0.666015625,0.1171875,3,1,11,48,5,1022.24224853516,366.381530761719,0,1,faces,female,1,1,objects,P,big,VS,O,19,E03,75.787109375
2,0,1,21005,0.861328125,0.357421875,4,1,6,39,6,963.7060546875,375.579498291016,1,0,NaN,NaN,1,1,objects,P,big,VS,O,19,E03,75.787109375
2,0,0,21008,1.44140625,0.380859375,5,0,7,40,9,968.205505371094,472.407135009766,0,1,objects,big,1,1,objects,P,big,VS,O,19,E03,75.787109375
3,0,0,21009,1.8515625,0.390625,6,0,6,39,10,958.949584960938,367.528991699219,1,0,NaN,NaN,1,1,objects,P,big,VS,O,19,E03,75.787109375
0,0,1,21010,2.427734375,0.11328125,7,0,15,77,11,1387.13134765625,581.168701171875,0,1,objects,small,1,1,objects,P,big,VS,O,19,E03,75.787109375
0,0,0,21012,3.369140625,0.185546875,8,0,12,54,13,1049.74353027344,964.031555175781,0,1,faces,female,1,1,objects,P,big,VS,O,19,E03,75.787109375
3,0,0,21013,3.62890625,0.140625,9,0,7,40,14,974.786682128906,401.447631835938,0,1,objects,big,1,1,objects,P,big,VS,O,19,E03,75.787109375
1,1,0,21023,0.234375,0.103515625,1,1,7,30,1,891.074584960938,322.272735595703,0,1,faces,female,0,1,faces,A,male,VS,I,20,E03,79.986328125
1,1,0,21024,0.357421875,0.169921875,2,1,6,29,2,864.881103515625,277.509521484375,0,1,faces,female,0,1,faces,A,male,VS,I,20,E03,79.986328125
2,1,0,21025,0.564453125,0.11328125,3,1,7,30,3,863.863403320312,351.807281494141,0,1,faces,female,0,1,faces,A,male,VS,I,20,E03,79.986328125
2,1,0,21026,0.705078125,0.3828125,4,1,6,29,4,863.995300292969,264.805908203125,0,1,faces,female,0,1,faces,A,male,VS,I,20,E03,79.986328125
0,1,1,21029,1.369140625,0.333984375,5,0,5,25,7,765.181640625,783.341003417969,0,1,faces,male,0,1,faces,A,male,VS,I,20,E03,79.986328125
0,1,0,21031,1.828125,0.21875,6,0,3,16,9,661.179870605469,782.239868164062,0,1,faces,male,0,1,faces,A,male,VS,I,20,E03,79.986328125
0,1,1,21032,2.1171875,0.1015625,7,0,1,4,10,582.152404785156,473.141235351562,0,1,faces,male,0,1,faces,A,male,VS,I,20,E03,79.986328125
0,1,0,21036,2.91796875,0.158203125,8,0,9,52,14,1064.46081542969,753.809326171875,0,1,faces,male,0,1,faces,A,male,VS,I,20,E03,79.986328125
0,1,1,21037,3.10546875,0.2578125,9,0,12,62,15,1148.25500488281,855.539184570312,0,1,faces,male,0,1,faces,A,male,VS,I,20,E03,79.986328125
0,1,0,21039,3.650390625,0.208984375,10,0,13,63,17,1173.97692871094,947.556823730469,0,1,faces,female,0,1,faces,A,male,VS,I,20,E03,79.986328125
0,1,0,21040,3.927734375,0.265625,11,0,15,79,18,1369.89294433594,750.39404296875,0,1,objects,small,0,1,faces,A,male,VS,I,20,E03,79.986328125
0,1,0,21051,0.314453125,0.14453125,1,1,3,11,1,694.259399414062,278.134613037109,0,1,objects,small,1,1,faces,P,male,VS,F,21,E03,84.185546875
0,1,1,21053,0.626953125,0.16796875,2,1,8,23,3,768.259094238281,560.891174316406,0,1,faces,female,1,1,faces,P,male,VS,F,21,E03,84.185546875
0,1,0,21054,0.865234375,0.208984375,3,1,6,19,4,752.686828613281,166.544250488281,0,1,faces,female,1,1,faces,P,male,VS,F,21,E03,84.185546875
0,1,1,21055,1.140625,0.115234375,4,1,1,3,5,538.369934082031,353.190093994141,1,0,NaN,NaN,1,1,faces,P,male,VS,F,21,E03,84.185546875
0,0,1,21059,2.080078125,0.123046875,5,0,10,42,9,973.693054199219,684.984130859375,0,1,faces,male,1,1,faces,P,male,VS,F,21,E03,84.185546875
1,0,0,21061,2.546875,0.1171875,6,0,13,72,11,1276.86767578125,891.096069335938,0,1,faces,male,1,1,faces,P,male,VS,F,21,E03,84.185546875
0,0,0,21062,2.68359375,0.302734375,7,0,12,71,12,1248.81652832031,864.94775390625,0,1,faces,male,1,1,faces,P,male,VS,F,21,E03,84.185546875
2,0,1,21063,3.015625,0.138671875,8,0,13,72,13,1270.37658691406,962.02099609375,0,1,faces,male,1,1,faces,P,male,VS,F,21,E03,84.185546875
1,0,0,21065,3.369140625,0.119140625,9,0,5,18,15,694.173095703125,971.207580566406,0,1,faces,female,1,1,faces,P,male,VS,F,21,E03,84.185546875
0,0,0,21066,3.5078125,0.193359375,10,0,9,27,16,729.84814453125,975.128051757812,0,1,faces,male,1,1,faces,P,male,VS,F,21,E03,84.185546875
2,0,1,21067,3.75390625,0.1171875,11,0,5,18,17,625.719787597656,970.413269042969,0,1,faces,female,1,1,faces,P,male,VS,F,21,E03,84.185546875
0,1,0,21082,0.224609375,0.1484375,1,1,4,22,1,761.295715332031,459.335479736328,0,1,faces,female,1,1,objects,P,big,VS,O,22,E03,88.384765625
0,1,1,21083,0.43359375,0.119140625,2,1,5,24,2,799.49462890625,658.635864257812,0,1,objects,small,1,1,objects,P,big,VS,O,22,E03,88.384765625
0,1,1,21085,0.865234375,0.171875,3,1,6,27,4,802.689086914062,960.330505371094,0,1,faces,male,1,1,objects,P,big,VS,O,22,E03,88.384765625
0,1,1,21088,1.33984375,0.138671875,4,1,2,15,7,629.753234863281,660.459350585938,0,1,objects,small,1,1,objects,P,big,VS,O,22,E03,88.384765625
1,0,1,21092,2.017578125,0.357421875,5,0,15,77,11,1362.255859375,535.005554199219,1,0,NaN,NaN,1,1,objects,P,big,VS,O,22,E03,88.384765625
2,0,1,21095,2.9375,0.1953125,6,0,15,77,14,1372.57373046875,553.809387207031,1,0,NaN,NaN,1,1,objects,P,big,VS,O,22,E03,88.384765625
0,0,0,21097,3.462890625,0.142578125,7,0,8,36,16,902.796875,956.844177246094,0,1,faces,male,1,1,objects,P,big,VS,O,22,E03,88.384765625
0,0,0,21098,3.62890625,0.458984375,8,0,10,45,17,949.401062011719,961.922058105469,0,1,objects,small,1,1,objects,P,big,VS,O,22,E03,88.384765625
0,1,1,21117,0.447265625,0.19140625,1,1,10,41,3,954.339294433594,553.712951660156,0,1,faces,female,0,1,objects,A,small,EX,O,23,E03,92.583984375
1,1,1,21122,1.06640625,0.201171875,2,1,4,22,8,759.406372070312,458.982971191406,0,1,faces,male,0,1,objects,A,small,EX,O,23,E03,92.583984375
1,1,0,21123,1.3046875,0.498046875,3,1,7,31,9,837.089233398438,468.45166015625,0,1,objects,big,0,1,objects,A,small,EX,O,23,E03,92.583984375
2,1,1,21124,1.841796875,0.119140625,4,1,4,22,10,747.767700195312,474.593902587891,0,1,faces,male,0,1,objects,A,small,EX,O,23,E03,92.583984375
3,1,1,21126,2.0625,0.302734375,5,0,4,22,12,755.271606445312,462.390106201172,0,1,faces,male,0,1,objects,A,small,EX,O,23,E03,92.583984375
0,1,1,21127,2.39453125,0.13671875,6,0,2,13,13,654.140502929688,460.922149658203,0,1,faces,female,0,1,objects,A,small,EX,O,23,E03,92.583984375
2,1,0,21129,2.76171875,0.146484375,7,0,7,31,15,835.451477050781,465.329833984375,0,1,objects,big,0,1,objects,A,small,EX,O,23,E03,92.583984375
0,1,0,21147,0.0546875,0.125,1,1,9,40,1,1007.86328125,487.935607910156,0,1,faces,male,1,1,objects,P,small,VS,O,24,E03,96.783203125
0,1,1,21150,0.521484375,0.2265625,2,1,6,20,4,750.244750976562,214.214996337891,0,1,objects,big,1,1,objects,P,small,VS,O,24,E03,96.783203125
0,0,0,21157,2.5625,0.240234375,3,1,3,12,11,699.932861328125,390.333587646484,1,0,NaN,NaN,1,1,objects,P,small,VS,O,24,E03,96.783203125
0,0,0,21158,2.880859375,0.171875,4,1,14,57,12,1160.89208984375,358.551086425781,0,1,faces,female,1,1,objects,P,small,VS,O,24,E03,96.783203125
0,0,0,21160,3.251953125,0.431640625,5,0,10,48,14,1081.10498046875,388.039764404297,0,1,objects,big,1,1,objects,P,small,VS,O,24,E03,96.783203125
0,0,0,21161,3.865234375,0.53515625,6,0,7,21,15,744.283447265625,390.228607177734,0,1,faces,female,1,1,objects,P,small,VS,O,24,E03,96.783203125
0,0,1,21180,0.380859375,0.484375,1,1,7,40,3,949.920837402344,481.953186035156,1,0,NaN,NaN,1,1,objects,P,big,VS,O,25,E03,100.982421875
0,0,0,21181,0.875,3.35546875,2,1,8,41,4,961.314392089844,491.914215087891,0,1,faces,male,1,1,objects,P,big,VS,O,25,E03,100.982421875
1,1,0,21198,0.318359375,0.220703125,1,1,8,39,2,964.663696289062,364.090362548828,0,1,faces,male,0,1,faces,A,female,VS,I,26,E03,105.181640625
0,1,1,21201,0.966796875,0.103515625,2,1,7,38,5,983.81103515625,193.611511230469,0,1,objects,small,0,1,faces,A,female,VS,I,26,E03,105.181640625
0,1,0,21206,1.87890625,0.267578125,3,1,2,9,10,554.611450195312,978.277160644531,0,1,faces,female,0,1,faces,A,female,VS,I,26,E03,105.181640625
0,1,0,21208,2.529296875,0.123046875,4,1,15,77,12,1338.24816894531,579.955383300781,0,1,faces,male,0,1,faces,A,female,VS,I,26,E03,105.181640625
0,1,1,21210,2.828125,0.12890625,5,0,11,49,14,1066.380859375,475.455017089844,0,1,faces,female,0,1,faces,A,female,VS,I,26,E03,105.181640625
0,1,0,21213,3.2578125,0.1875,6,0,1,2,17,554.206237792969,290.377197265625,0,1,faces,male,0,1,faces,A,female,VS,I,26,E03,105.181640625
2,1,1,21214,3.513671875,0.142578125,7,0,8,39,18,948.05712890625,332.379760742188,0,1,faces,male,0,1,faces,A,female,VS,I,26,E03,105.181640625
3,1,1,21216,3.79296875,0.201171875,8,0,8,39,20,978.49365234375,390.440368652344,0,1,faces,male,0,1,faces,A,female,VS,I,26,E03,105.181640625
0,1,0,21226,0.3046875,0.1953125,1,1,5,23,2,752.733581542969,506.748291015625,0,1,faces,male,0,1,faces,A,female,EX,F,27,E03,109.380859375
0,1,0,21228,0.755859375,0.21875,2,1,7,34,4,838.055236816406,782.274963378906,0,1,objects,small,0,1,faces,A,female,EX,F,27,E03,109.380859375
0,1,0,21230,1.169921875,0.310546875,3,1,10,60,6,1144.47924804688,683.324951171875,0,1,faces,female,0,1,faces,A,female,EX,F,27,E03,109.380859375
0,1,0,21232,1.697265625,0.251953125,4,1,9,58,8,1155.95092773438,488.250122070312,0,1,objects,big,0,1,faces,A,female,EX,F,27,E03,109.380859375
1,1,0,21233,2.03125,0.123046875,5,0,3,20,9,783.996459960938,285.163391113281,0,1,objects,small,0,1,faces,A,female,EX,F,27,E03,109.380859375
2,1,0,21236,2.642578125,0.130859375,6,0,3,20,12,736.761047363281,207.239334106445,0,1,objects,small,0,1,faces,A,female,EX,F,27,E03,109.380859375
1,1,0,21251,0.23046875,0.212890625,1,1,4,23,1,741.830993652344,584.740539550781,0,1,objects,big,0,1,objects,A,small,VS,O,28,E03,113.580078125
0,1,0,21253,0.67578125,0.134765625,2,1,6,38,3,952.472351074219,284.589965820312,0,1,objects,small,0,1,objects,A,small,VS,O,28,E03,113.580078125
0,1,0,21257,1.357421875,0.103515625,3,1,2,9,7,543.906555175781,986.096557617188,0,1,objects,small,0,1,objects,A,small,VS,O,28,E03,113.580078125
0,1,0,21261,2.17578125,0.240234375,4,1,13,54,11,1054.29565429688,972.490539550781,0,1,objects,big,0,1,objects,A,small,VS,O,28,E03,113.580078125
0,1,0,21262,2.486328125,0.1796875,5,0,11,50,12,1018.06915283203,569.027954101562,0,1,faces,male,0,1,objects,A,small,VS,O,28,E03,113.580078125
0,1,0,21263,2.705078125,0.171875,6,0,7,40,13,960.331481933594,482.78662109375,0,1,faces,male,0,1,objects,A,small,VS,O,28,E03,113.580078125
0,1,1,21268,3.599609375,0.146484375,7,0,3,16,18,636.162048339844,790.09716796875,0,1,objects,small,0,1,objects,A,small,VS,O,28,E03,113.580078125
2,1,0,21269,3.787109375,0.193359375,8,0,4,23,19,752.158935546875,583.868286132812,0,1,objects,big,0,1,objects,A,small,VS,O,28,E03,113.580078125
1,1,1,21282,0.228515625,0.1484375,1,1,6,41,1,934.513549804688,584.2490234375,0,1,faces,female,0,0,faces,P,female,VS,F,29,E03,117.779296875
0,1,1,21284,0.55859375,0.115234375,2,1,5,38,3,927.735229492188,243.967468261719,0,1,faces,male,0,0,faces,P,female,VS,F,29,E03,117.779296875
0,1,0,21289,1.59375,0.251953125,3,1,10,56,8,1128.36804199219,283.113433837891,0,1,faces,female,0,0,faces,P,female,VS,F,29,E03,117.779296875
0,1,0,21290,1.87109375,0.19921875,4,1,7,47,9,1045.73876953125,282.295837402344,0,1,faces,male,0,0,faces,P,female,VS,F,29,E03,117.779296875
0,1,0,21292,2.29296875,0.1171875,5,0,9,52,11,1034.20849609375,698.531555175781,0,1,faces,male,0,0,faces,P,female,VS,F,29,E03,117.779296875
2,1,0,21293,2.447265625,0.283203125,6,0,6,41,12,943.064086914062,589.676025390625,0,1,faces,female,0,0,faces,P,female,VS,F,29,E03,117.779296875
0,1,0,21294,2.806640625,0.1796875,7,0,14,76,13,1324.9775390625,466.996673583984,0,1,objects,big,0,0,faces,P,female,VS,F,29,E03,117.779296875
0,1,0,21297,3.373046875,0.158203125,8,0,8,51,16,1054.01916503906,682.613037109375,0,1,faces,male,0,0,faces,P,female,VS,F,29,E03,117.779296875
0,1,0,21318,0.193359375,0.12890625,1,1,9,40,1,937.091247558594,484.682952880859,0,1,faces,male,0,1,faces,A,male,VS,F,30,E03,121.978515625
0,1,1,21319,0.373046875,0.158203125,2,1,7,30,2,832.637756347656,376.501007080078,0,1,faces,female,0,1,faces,A,male,VS,F,30,E03,121.978515625
0,1,1,21321,0.70703125,0.134765625,3,1,4,21,4,749.05126953125,373.803619384766,0,1,faces,female,0,1,faces,A,male,VS,F,30,E03,121.978515625
0,1,0,21328,1.970703125,0.154296875,4,1,5,23,11,723.137268066406,589.340393066406,0,1,faces,female,0,1,faces,A,male,VS,F,30,E03,121.978515625
0,1,0,21332,2.552734375,0.328125,5,0,15,79,15,1354.19323730469,702.16552734375,0,1,objects,small,0,1,faces,A,male,VS,F,30,E03,121.978515625
0,1,0,21335,3.48046875,0.1484375,6,0,3,7,18,553.788330078125,787.357543945312,0,1,objects,big,0,1,faces,A,male,VS,F,30,E03,121.978515625
0,1,0,21356,0.376953125,0.158203125,1,1,3,20,2,756.488647460938,285.746948242188,0,1,faces,male,0,1,faces,P,female,VS,F,31,E03,126.177734375
0,1,0,21363,2.208984375,0.123046875,2,1,9,53,9,1107.67077636719,810.613464355469,0,1,faces,male,0,1,faces,P,female,VS,F,31,E03,126.177734375
1,1,1,21387,0.193359375,0.109375,1,1,4,31,1,843.322265625,411.19677734375,0,1,faces,male,0,1,faces,A,female,VS,F,32,E03,130.376953125
0,1,1,21389,0.494140625,0.126953125,2,1,10,48,3,1012.76055908203,378.856201171875,0,1,faces,female,0,1,faces,A,female,VS,F,32,E03,130.376953125
0,1,0,21392,1.03515625,0.2421875,3,1,8,46,6,1047.92248535156,185.203399658203,0,1,faces,female,0,1,faces,A,female,VS,F,32,E03,130.376953125
0,1,0,21394,1.474609375,0.208984375,4,1,7,36,8,832.088134765625,955.982238769531,0,1,faces,female,0,1,faces,A,female,VS,F,32,E03,130.376953125
0,1,1,21397,2.0234375,0.11328125,5,0,1,8,11,536.690673828125,880.157958984375,0,1,faces,female,0,1,faces,A,female,VS,F,32,E03,130.376953125
1,1,0,21401,2.947265625,0.1171875,6,0,12,57,15,1170.81433105469,331.93603515625,0,1,faces,female,0,1,faces,A,female,VS,F,32,E03,130.376953125
0,1,0,21402,3.103515625,0.138671875,7,0,14,66,16,1241.98461914062,304.821533203125,0,1,objects,big,0,1,faces,A,female,VS,F,32,E03,130.376953125
2,1,0,21403,3.30078125,0.11328125,8,0,12,57,17,1124.0078125,388.451171875,0,1,faces,female,0,1,faces,A,female,VS,F,32,E03,130.376953125
2,1,0,21405,3.744140625,0.15234375,9,0,4,31,19,858.524963378906,473.891815185547,0,1,faces,male,0,1,faces,A,female,VS,F,32,E03,130.376953125
0,1,0,21406,3.958984375,0.11328125,10,0,9,47,20,1021.42340087891,198.666732788086,0,1,objects,small,0,1,faces,A,female,VS,F,32,E03,130.376953125
0,1,0,21426,0.611328125,0.240234375,1,1,5,21,3,764.067016601562,389.561859130859,0,1,faces,male,0,1,faces,P,male,VS,I,33,E03,134.576171875
0,1,0,21427,1.00390625,0.142578125,2,1,4,8,4,603.554443359375,821.842407226562,0,1,objects,big,0,1,faces,P,male,VS,I,33,E03,134.576171875
0,1,0,21428,1.18359375,0.162109375,3,1,3,7,5,575.96337890625,750.010375976562,0,1,faces,female,0,1,faces,P,male,VS,I,33,E03,134.576171875
0,1,0,21436,2.87890625,0.166015625,4,1,15,76,13,1362.97863769531,482.670684814453,0,1,faces,female,0,1,faces,P,male,VS,I,33,E03,134.576171875
0,1,1,21450,0.375,0.138671875,1,1,7,32,3,848.871704101562,564.972351074219,0,1,faces,female,0,1,faces,A,male,EX,F,34,E03,138.775390625
0,1,0,21452,0.771484375,0.1484375,2,1,9,60,5,1196.6884765625,650.4306640625,0,1,faces,male,0,1,faces,A,male,EX,F,34,E03,138.775390625
0,1,1,21454,2.853515625,0.3203125,3,1,6,31,7,834.588806152344,484.80078125,0,1,faces,male,0,1,faces,A,male,EX,F,34,E03,138.775390625
0,1,0,21480,2.92578125,0.236328125,1,1,11,67,7,1224.98352050781,478.483581542969,0,1,faces,male,0,1,objects,A,big,EX,O,35,E03,142.974609375
0,1,0,21497,0.197265625,0.162109375,1,1,5,31,1,880.246154785156,450.686187744141,0,1,objects,big,1,0,faces,P,male,VS,I,36,E03,147.173828125
1,1,0,21500,0.630859375,0.142578125,2,1,11,50,4,1057.28161621094,559.422058105469,1,0,NaN,NaN,1,0,faces,P,male,VS,I,36,E03,147.173828125
1,1,0,21501,0.796875,0.115234375,3,1,9,42,5,990.007141113281,609.428588867188,0,1,faces,female,1,0,faces,P,male,VS,I,36,E03,147.173828125
1,1,0,21502,0.939453125,0.111328125,4,1,8,41,6,1004.84375,541.809753417969,0,1,faces,male,1,0,faces,P,male,VS,I,36,E03,147.173828125
2,0,0,21503,1.083984375,0.234375,5,0,11,50,7,1089.705078125,549.005737304688,1,0,NaN,NaN,1,0,faces,P,male,VS,I,36,E03,147.173828125
0,0,0,21504,1.548828125,0.10546875,6,0,1,2,8,580.493225097656,242.3232421875,0,1,objects,small,1,0,faces,P,male,VS,I,36,E03,147.173828125
0,0,0,21508,2.396484375,0.162109375,7,0,4,27,12,802.128173828125,952.112854003906,0,1,faces,female,1,0,faces,P,male,VS,I,36,E03,147.173828125
0,0,0,21510,2.841796875,0.140625,8,0,13,60,14,1208.84741210938,642.291198730469,0,1,faces,female,1,0,faces,P,male,VS,I,36,E03,147.173828125
2,0,0,21511,3.046875,0.21875,9,0,9,42,15,993.236755371094,637.754821777344,0,1,faces,female,1,0,faces,P,male,VS,I,36,E03,147.173828125
3,0,0,21512,3.296875,0.12890625,10,0,11,50,16,1011.62121582031,549.922973632812,1,0,NaN,NaN,1,0,faces,P,male,VS,I,36,E03,147.173828125
2,0,0,21513,3.4375,0.154296875,11,0,8,41,17,1004.11187744141,543.2314453125,0,1,faces,male,1,0,faces,P,male,VS,I,36,E03,147.173828125
0,0,1,21515,3.853515625,0.279296875,12,0,2,4,19,555.106018066406,433.190063476562,0,1,faces,male,1,0,faces,P,male,VS,I,36,E03,147.173828125
0,1,0,21532,0.341796875,0.1171875,1,1,6,24,3,803.140625,666.122680664062,0,1,objects,big,0,1,faces,A,female,EX,I,37,E03,151.373046875
0,1,1,21533,0.544921875,0.158203125,2,1,7,25,4,729.11865234375,742.818115234375,0,1,faces,female,0,1,faces,A,female,EX,I,37,E03,151.373046875
0,1,1,21535,0.939453125,0.126953125,3,1,8,33,6,835.322875976562,658.246032714844,0,1,faces,male,0,1,faces,A,female,EX,I,37,E03,151.373046875
0,1,0,21537,1.306640625,0.259765625,4,1,13,67,8,1282.25244140625,445.164123535156,0,1,faces,female,0,1,faces,A,female,EX,I,37,E03,151.373046875
0,1,1,21539,1.693359375,0.177734375,5,0,14,76,10,1389.0771484375,450.303070068359,0,1,faces,male,0,1,faces,A,female,EX,I,37,E03,151.373046875
0,1,1,21541,2.1328125,0.109375,6,0,5,11,12,636.902893066406,247.830474853516,0,1,faces,female,0,1,faces,A,female,EX,I,37,E03,151.373046875
0,1,1,21564,0.220703125,0.275390625,1,1,5,32,1,855.600952148438,549.412841796875,0,1,objects,small,0,1,faces,A,male,EX,I,38,E03,155.572265625
0,1,1,21566,0.798828125,0.126953125,2,1,8,52,3,1076.72399902344,756.386169433594,0,1,faces,female,0,1,faces,A,male,EX,I,38,E03,155.572265625
0,1,0,21568,1.158203125,0.208984375,3,1,9,53,5,1059.45971679688,834.915283203125,0,1,objects,big,0,1,faces,A,male,EX,I,38,E03,155.572265625
0,1,1,21607,0.619140625,0.130859375,1,1,12,68,3,1279.57336425781,520.996276855469,0,1,faces,female,1,1,faces,P,female,VS,F,39,E03,159.771484375
0,1,0,21608,0.791015625,0.21484375,2,1,14,76,4,1360.42944335938,436.560180664062,0,1,faces,male,1,1,faces,P,female,VS,F,39,E03,159.771484375
0,1,0,21610,1.193359375,0.21875,3,1,6,28,6,858.073852539062,166.779266357422,0,1,faces,male,1,1,faces,P,female,VS,F,39,E03,159.771484375
0,1,1,21613,1.927734375,0.189453125,4,1,2,9,9,530.6064453125,957.414306640625,0,1,faces,female,1,1,faces,P,female,VS,F,39,E03,159.771484375
0,1,1,21616,2.4375,0.1171875,5,0,9,52,12,1031.02124023438,727.541320800781,0,1,faces,female,1,1,faces,P,female,VS,F,39,E03,159.771484375
0,1,0,21619,2.74609375,0.21484375,6,0,8,51,15,1061.80993652344,643.858947753906,0,1,faces,male,1,1,faces,P,female,VS,F,39,E03,159.771484375
1,1,1,21620,3.001953125,0.126953125,7,0,13,69,16,1236.69641113281,638.051818847656,1,0,NaN,NaN,1,1,faces,P,female,VS,F,39,E03,159.771484375
0,1,0,21622,3.353515625,0.125,8,0,10,53,18,1098.43310546875,802.118530273438,0,1,faces,female,1,1,faces,P,female,VS,F,39,E03,159.771484375
2,1,0,21623,3.546875,0.177734375,9,0,13,69,19,1283.38781738281,641.874084472656,1,0,NaN,NaN,1,1,faces,P,female,VS,F,39,E03,159.771484375
0,1,0,21633,0.2109375,0.1640625,1,1,5,31,2,853.560729980469,462.354553222656,0,1,faces,male,1,0,faces,P,male,VS,F,40,E03,163.970703125
0,1,1,21634,0.4453125,0.13671875,2,1,8,46,3,1043.18591308594,169.514007568359,0,1,faces,male,1,0,faces,P,male,VS,F,40,E03,163.970703125
0,1,0,21636,0.740234375,0.1640625,3,1,2,10,5,660.484191894531,182.214248657227,0,1,faces,female,1,0,faces,P,male,VS,F,40,E03,163.970703125
0,1,0,21638,1.15234375,0.140625,4,1,13,77,7,1347.69812011719,514.418701171875,0,1,faces,female,1,0,faces,P,male,VS,F,40,E03,163.970703125
0,1,0,21639,1.314453125,0.15625,5,0,12,76,8,1361.01647949219,478.465026855469,0,1,faces,male,1,0,faces,P,male,VS,F,40,E03,163.970703125
1,1,1,21640,1.541015625,0.173828125,6,0,15,80,9,1356.86828613281,826.563049316406,1,0,NaN,NaN,1,0,faces,P,male,VS,F,40,E03,163.970703125
0,0,1,21642,2.42578125,0.142578125,7,0,4,27,11,797.243835449219,977.650024414062,0,1,faces,female,1,0,faces,P,male,VS,F,40,E03,163.970703125
0,0,0,21645,2.966796875,0.107421875,8,0,3,14,14,663.098876953125,565.914978027344,0,1,objects,small,1,0,faces,P,male,VS,F,40,E03,163.970703125
0,0,1,21646,3.13671875,0.123046875,9,0,7,43,15,941.330017089844,736.104675292969,0,1,faces,male,1,0,faces,P,male,VS,F,40,E03,163.970703125
0,0,0,21648,3.458984375,0.16796875,10,0,9,60,17,1181.22155761719,636.837097167969,0,1,objects,small,1,0,faces,P,male,VS,F,40,E03,163.970703125
0,0,0,21649,3.69140625,0.16796875,11,0,14,79,18,1359.59411621094,762.432495117188,0,1,faces,female,1,0,faces,P,male,VS,F,40,E03,163.970703125
2,0,0,21650,3.892578125,0.12890625,12,0,15,80,19,1346.91613769531,847.9033203125,1,0,NaN,NaN,1,0,faces,P,male,VS,F,40,E03,163.970703125
1,1,0,21673,0.203125,0.146484375,1,1,9,49,2,1037.31665039062,413.568420410156,0,1,faces,female,0,1,faces,A,female,EX,F,41,E03,168.169921875
1,1,1,21674,0.416015625,0.125,2,1,11,55,3,1153.59448242188,158.268463134766,0,1,faces,male,0,1,faces,A,female,EX,F,41,E03,168.169921875
2,1,1,21676,0.634765625,0.29296875,3,1,11,55,5,1146.74755859375,182.493804931641,0,1,faces,male,0,1,faces,A,female,EX,F,41,E03,168.169921875
0,1,1,21677,1.0703125,0.111328125,4,1,4,11,6,660.031616210938,264.763580322266,0,1,faces,female,0,1,faces,A,female,EX,F,41,E03,168.169921875
0,1,1,21680,1.677734375,0.18359375,5,0,8,48,9,1046.18408203125,352.560882568359,0,1,objects,small,0,1,faces,A,female,EX,F,41,E03,168.169921875
2,1,0,21682,2.029296875,0.279296875,6,0,9,49,11,1050.69055175781,439.855590820312,0,1,faces,female,0,1,faces,A,female,EX,F,41,E03,168.169921875
0,1,1,21683,2.392578125,0.14453125,7,0,15,76,12,1345.44995117188,424.764770507812,0,1,faces,female,0,1,faces,A,female,EX,F,41,E03,168.169921875
1,1,1,21686,2.859375,0.291015625,8,0,14,75,15,1354.15063476562,347.003814697266,0,1,faces,male,0,1,faces,A,female,EX,F,41,E03,168.169921875
2,1,1,21688,3.220703125,0.2421875,9,0,14,75,17,1352.75915527344,346.571563720703,0,1,faces,male,0,1,faces,A,female,EX,F,41,E03,168.169921875
0,1,1,21706,0.12109375,0.150390625,1,1,6,40,1,989.740051269531,463.938018798828,0,1,objects,big,1,0,faces,P,male,VS,F,42,E03,172.369140625
1,1,0,21708,0.373046875,0.283203125,2,1,8,49,3,1047.98840332031,457.797302246094,0,1,faces,male,1,0,faces,P,male,VS,F,42,E03,172.369140625
1,1,0,21709,0.716796875,0.126953125,3,1,7,47,4,1100.84545898438,256.912414550781,0,1,faces,female,1,0,faces,P,male,VS,F,42,E03,172.369140625
0,0,0,21710,0.8671875,0.23828125,4,1,11,56,5,1147.78564453125,270.635925292969,1,0,NaN,NaN,1,0,faces,P,male,VS,F,42,E03,172.369140625
2,0,0,21714,1.44140625,0.166015625,5,0,7,47,9,1051.86279296875,287.973846435547,0,1,faces,female,1,0,faces,P,male,VS,F,42,E03,172.369140625
0,0,1,21716,1.82421875,0.1640625,6,0,1,3,11,548.21630859375,381.08056640625,0,1,faces,female,1,0,faces,P,male,VS,F,42,E03,172.369140625
0,0,1,21717,2.0546875,0.107421875,7,0,2,13,12,648.240600585938,479.143005371094,0,1,faces,male,1,0,faces,P,male,VS,F,42,E03,172.369140625
2,0,1,21719,2.4453125,0.103515625,8,0,8,49,14,1027.75952148438,464.2890625,0,1,faces,male,1,0,faces,P,male,VS,F,42,E03,172.369140625
0,0,0,21721,3.00390625,0.11328125,9,0,3,17,16,675.405212402344,842.749938964844,0,1,faces,male,1,0,faces,P,male,VS,F,42,E03,172.369140625
0,0,0,21722,3.150390625,0.134765625,10,0,5,25,17,726.435485839844,764.356994628906,0,1,objects,small,1,0,faces,P,male,VS,F,42,E03,172.369140625
0,0,1,21725,3.6640625,0.115234375,11,0,14,72,20,1212.94372558594,932.01220703125,0,1,faces,female,1,0,faces,P,male,VS,F,42,E03,172.369140625
0,0,0,21727,3.978515625,0.53515625,12,0,15,79,22,1338.70751953125,747.080993652344,0,1,faces,male,1,0,faces,P,male,VS,F,42,E03,172.369140625
0,1,1,21744,0.36328125,0.232421875,1,1,8,52,3,1034.26062011719,751.990234375,0,1,objects,small,0,1,faces,A,female,EX,I,43,E03,176.568359375
0,1,1,21760,3.494140625,0.140625,2,1,1,5,19,569.142272949219,561.587219238281,0,1,objects,small,0,1,faces,A,female,EX,I,43,E03,176.568359375
0,1,0,21780,0.376953125,0.12109375,1,1,6,30,3,869.869323730469,370.894622802734,0,1,faces,female,1,1,faces,P,female,VS,I,44,E03,180.767578125
1,1,0,21785,1.255859375,0.12109375,2,1,10,53,8,1027.81481933594,852.163452148438,1,0,NaN,NaN,1,1,faces,P,female,VS,I,44,E03,180.767578125
1,1,0,21786,1.404296875,0.103515625,3,1,11,54,9,1058.65393066406,900.482666015625,0,1,faces,male,1,1,faces,P,female,VS,I,44,E03,180.767578125
2,0,0,21787,1.51953125,1.13671875,4,1,10,53,10,1059.18591308594,878.725708007812,1,0,NaN,NaN,1,1,faces,P,female,VS,I,44,E03,180.767578125
2,0,0,21788,2.69921875,0.267578125,5,0,11,54,11,1056.56042480469,987.02392578125,0,1,faces,male,1,1,faces,P,female,VS,I,44,E03,180.767578125
0,0,1,21789,3.03125,0.115234375,6,0,15,81,12,1333.86865234375,975.182006835938,0,1,faces,female,1,1,faces,P,female,VS,I,44,E03,180.767578125
0,0,0,21792,3.56640625,0.150390625,7,0,14,65,15,1254.34594726562,267.996765136719,0,1,objects,small,1,1,faces,P,female,VS,I,44,E03,180.767578125
0,0,1,21794,3.94140625,0.10546875,8,0,2,10,17,699.220397949219,155.657623291016,0,1,faces,male,1,1,faces,P,female,VS,I,44,E03,180.767578125
1,1,0,21814,0.314453125,0.111328125,1,1,10,60,1,1132.65246582031,644.688049316406,1,0,NaN,NaN,1,1,objects,P,big,VS,O,45,E03,184.966796875
1,1,0,21815,0.501953125,0.12890625,2,1,5,22,2,755.962890625,474.938140869141,0,1,objects,small,1,1,objects,P,big,VS,O,45,E03,184.966796875
2,1,1,21816,0.703125,0.18359375,3,1,10,60,3,1144.15637207031,607.724548339844,1,0,NaN,NaN,1,1,objects,P,big,VS,O,45,E03,184.966796875
0,0,0,21819,1.435546875,0.146484375,4,1,12,74,6,1334.55346679688,282.706268310547,0,1,objects,small,1,1,objects,P,big,VS,O,45,E03,184.966796875
2,0,1,21821,1.7421875,0.12109375,5,0,5,22,8,764.503234863281,483.395355224609,0,1,objects,small,1,1,objects,P,big,VS,O,45,E03,184.966796875
0,0,1,21824,2.408203125,0.18359375,6,0,14,80,11,1365.51477050781,872.765686035156,0,1,faces,male,1,1,objects,P,big,VS,O,45,E03,184.966796875
1,1,1,21848,0.259765625,0.212890625,1,1,5,41,2,911.870849609375,551.907775878906,0,1,faces,male,0,1,objects,A,big,EX,O,46,E03,189.166015625
0,1,0,21851,1.154296875,0.359375,2,1,8,58,5,1166.21960449219,421.672210693359,0,1,faces,male,0,1,objects,A,big,EX,O,46,E03,189.166015625
2,1,1,21852,1.578125,0.13671875,3,1,5,41,6,985.070739746094,510.161834716797,0,1,faces,male,0,1,objects,A,big,EX,O,46,E03,189.166015625
1,1,1,21854,2.12890625,0.140625,4,1,9,60,8,1145.58837890625,663.724853515625,0,1,faces,female,0,1,objects,A,big,EX,O,46,E03,189.166015625
3,1,1,21858,3.04296875,0.19140625,5,0,5,41,12,959.419982910156,546.004760742188,0,1,faces,male,0,1,objects,A,big,EX,O,46,E03,189.166015625
2,1,0,21861,3.90625,0.23828125,6,0,9,60,15,1140.7705078125,664.376647949219,0,1,faces,female,0,1,objects,A,big,EX,O,46,E03,189.166015625
0,1,1,21881,0.1171875,0.134765625,1,1,3,32,2,825.449584960938,495.549774169922,0,1,objects,big,0,1,faces,P,female,VS,F,47,E03,193.365234375
0,1,0,21882,0.310546875,0.126953125,2,1,1,14,3,633.053955078125,518.529541015625,0,1,faces,male,0,1,faces,P,female,VS,F,47,E03,193.365234375
0,1,1,21883,0.623046875,0.208984375,3,1,6,39,4,937.715454101562,355.8662109375,0,1,faces,female,0,1,faces,P,female,VS,F,47,E03,193.365234375
1,1,0,21886,1.27734375,0.224609375,4,1,8,53,7,1050.7294921875,866.831359863281,0,1,faces,female,0,1,faces,P,female,VS,F,47,E03,193.365234375
2,1,0,21888,2.416015625,0.50390625,5,0,8,53,9,1073.19494628906,814.983032226562,0,1,faces,female,0,1,faces,P,female,VS,F,47,E03,193.365234375
3,1,0,21893,3.935546875,0.599609375,6,0,8,53,14,1065.55895996094,813.313720703125,0,1,faces,female,0,1,faces,P,female,VS,F,47,E03,193.365234375
0,1,0,21903,0.25,0.123046875,1,1,3,22,2,780.069763183594,445.169555664062,0,1,objects,small,0,1,faces,A,female,VS,F,48,E03,197.564453125
0,1,1,21905,0.5703125,0.134765625,2,1,2,11,4,656.666809082031,246.681732177734,0,1,faces,female,0,1,faces,A,female,VS,F,48,E03,197.564453125
0,1,0,21909,1.1484375,0.140625,3,1,5,28,8,864.154907226562,159.069564819336,0,1,faces,male,0,1,faces,A,female,VS,F,48,E03,197.564453125
0,1,0,21910,1.390625,0.16796875,4,1,8,55,9,1149.32080078125,181.316818237305,0,1,faces,male,0,1,faces,A,female,VS,F,48,E03,197.564453125
0,1,0,21911,1.623046875,0.287109375,5,0,10,64,10,1262.43615722656,169.579879760742,0,1,faces,female,0,1,faces,A,female,VS,F,48,E03,197.564453125
0,1,1,21912,1.94140625,0.146484375,6,0,14,73,11,1364.63732910156,167.944778442383,0,1,faces,female,0,1,faces,A,female,VS,F,48,E03,197.564453125
0,1,1,21916,2.544921875,0.263671875,7,0,13,71,15,1251.66369628906,853.711059570312,0,1,faces,female,0,1,faces,A,female,VS,F,48,E03,197.564453125
0,1,1,21917,2.892578125,0.12890625,8,0,6,35,16,814.646545410156,874.048645019531,0,1,faces,female,0,1,faces,A,female,VS,F,48,E03,197.564453125
1,1,1,21920,3.4765625,0.251953125,9,0,1,4,19,555.39013671875,470.496307373047,0,1,faces,female,0,1,faces,A,female,VS,F,48,E03,197.564453125
2,1,1,21922,3.82421875,0.10546875,10,0,1,4,21,541.620422363281,462.505645751953,0,1,faces,female,0,1,faces,A,female,VS,F,48,E03,197.564453125
1,1,0,21934,0.5078125,0.115234375,1,1,7,41,2,999.43994140625,586.427917480469,0,1,objects,small,1,1,objects,P,big,VS,O,49,E03,201.763671875
1,1,0,21937,0.994140625,0.234375,2,1,9,45,5,922.797912597656,985.522277832031,0,1,faces,female,1,1,objects,P,big,VS,O,49,E03,201.763671875
0,1,0,21938,1.31640625,0.11328125,3,1,15,75,6,1316.09411621094,367.796752929688,0,1,faces,female,1,1,objects,P,big,VS,O,49,E03,201.763671875
0,1,0,21941,1.837890625,0.134765625,4,1,3,19,9,759.191955566406,176.818313598633,0,1,faces,male,1,1,objects,P,big,VS,O,49,E03,201.763671875
0,1,1,21943,2.37890625,0.125,5,0,2,6,11,543.854125976562,678.123413085938,1,0,NaN,NaN,1,1,objects,P,big,VS,O,49,E03,201.763671875
2,0,0,21945,2.9296875,0.25390625,6,0,7,41,13,959.112731933594,585.905700683594,0,1,objects,small,1,1,objects,P,big,VS,O,49,E03,201.763671875
0,0,0,21946,3.234375,0.41015625,7,0,11,51,14,1059.21545410156,638.562866210938,0,1,objects,small,1,1,objects,P,big,VS,O,49,E03,201.763671875
2,0,0,21948,3.912109375,0.181640625,8,0,9,45,16,941.024047851562,941.478637695312,0,1,faces,female,1,1,objects,P,big,VS,O,49,E03,201.763671875
1,1,0,21963,0.236328125,0.142578125,1,1,12,50,1,1046.86108398438,556.616516113281,0,1,faces,male,0,1,faces,A,female,VS,I,50,E03,205.962890625
0,1,1,21964,0.44921875,0.12890625,2,1,6,30,2,862.433532714844,376.462371826172,0,1,objects,small,0,1,faces,A,female,VS,I,50,E03,205.962890625
0,1,0,21966,0.744140625,0.1875,3,1,4,22,4,739.814514160156,445.113433837891,0,1,faces,female,0,1,faces,A,female,VS,I,50,E03,205.962890625
0,1,1,21968,1.130859375,0.25390625,4,1,3,19,6,736.869140625,157.83837890625,0,1,faces,female,0,1,faces,A,female,VS,I,50,E03,205.962890625
0,1,0,21971,1.810546875,0.12109375,5,0,5,26,9,753.261352539062,888.325866699219,0,1,faces,female,0,1,faces,A,female,VS,I,50,E03,205.962890625
0,1,1,21972,1.958984375,0.205078125,6,0,7,36,10,813.833984375,972.733032226562,0,1,faces,female,0,1,faces,A,female,VS,I,50,E03,205.962890625
2,1,1,21974,2.32421875,0.115234375,7,0,12,50,12,1014.29290771484,540.877258300781,0,1,faces,male,0,1,faces,A,female,VS,I,50,E03,205.962890625
1,1,0,21976,2.666015625,0.23828125,8,0,11,48,14,1077.02465820312,375.064575195312,0,1,faces,female,0,1,faces,A,female,VS,I,50,E03,205.962890625
0,1,0,21977,3.00390625,0.203125,9,0,15,77,15,1344.70629882812,560.176330566406,0,1,faces,male,0,1,faces,A,female,VS,I,50,E03,205.962890625
2,1,0,21978,3.2890625,0.11328125,10,0,11,48,16,1054.42053222656,299.917907714844,0,1,faces,female,0,1,faces,A,female,VS,I,50,E03,205.962890625
0,1,1,21980,3.5859375,0.1328125,11,0,9,42,18,957.288146972656,626.28759765625,0,1,faces,male,0,1,faces,A,female,VS,I,50,E03,205.962890625
0,1,0,21994,0.32421875,0.185546875,1,1,3,19,2,734.769897460938,186.310028076172,0,1,faces,male,0,1,faces,A,male,VS,F,51,E03,210.162109375
0,1,0,21996,0.779296875,0.111328125,2,1,4,21,4,757.475891113281,367.72509765625,0,1,faces,female,0,1,faces,A,male,VS,F,51,E03,210.162109375
1,1,1,21997,0.958984375,0.140625,3,1,6,24,5,772.324951171875,659.059143066406,0,1,faces,female,0,1,faces,A,male,VS,F,51,E03,210.162109375
0,1,0,21999,1.28515625,0.2265625,4,1,9,42,7,968.713073730469,673.133239746094,0,1,faces,male,0,1,faces,A,male,VS,F,51,E03,210.162109375
0,1,0,22000,1.5546875,0.26171875,5,0,13,60,8,1160.72033691406,668.114868164062,0,1,faces,female,0,1,faces,A,male,VS,F,51,E03,210.162109375
0,1,0,22003,2.09765625,0.1328125,6,0,10,57,11,1177.08093261719,380.076934814453,0,1,faces,male,0,1,faces,A,male,VS,F,51,E03,210.162109375
0,1,1,22004,2.248046875,0.193359375,7,0,11,58,12,1177.23608398438,421.093841552734,0,1,faces,male,0,1,faces,A,male,VS,F,51,E03,210.162109375
0,1,0,22006,2.56640625,0.20703125,8,0,14,67,14,1271.50927734375,477.915832519531,0,1,faces,female,0,1,faces,A,male,VS,F,51,E03,210.162109375
0,1,1,22007,2.865234375,0.1015625,9,0,7,25,15,797.163757324219,757.857116699219,0,1,faces,female,0,1,faces,A,male,VS,F,51,E03,210.162109375
0,1,0,22009,3.279296875,0.25,10,0,8,36,17,859.236267089844,977.408874511719,0,1,faces,male,0,1,faces,A,male,VS,F,51,E03,210.162109375
0,1,0,22010,3.6015625,0.185546875,11,0,15,72,18,1272.82336425781,967.260681152344,0,1,objects,big,0,1,faces,A,male,VS,F,51,E03,210.162109375
2,1,0,22012,3.994140625,0.400390625,12,0,6,24,20,782.264038085938,669.3603515625,0,1,faces,female,0,1,faces,A,male,VS,F,51,E03,210.162109375
1,1,0,22024,0.2265625,0.24609375,1,1,3,30,1,812.752990722656,370.953674316406,0,1,objects,big,0,1,objects,A,big,VS,O,52,E03,214.361328125
0,1,0,22025,0.5390625,0.146484375,2,1,4,33,2,822.643920898438,653.378723144531,0,1,objects,small,0,1,objects,A,big,VS,O,52,E03,214.361328125
1,1,0,22026,0.7578125,0.2421875,3,1,8,58,3,1129.53173828125,462.829193115234,0,1,objects,small,0,1,objects,A,big,VS,O,52,E03,214.361328125
0,1,0,22030,1.49609375,0.1953125,4,1,12,70,7,1271.0634765625,752.614990234375,0,1,faces,female,0,1,objects,A,big,VS,O,52,E03,214.361328125
0,1,0,22031,1.751953125,0.16796875,5,0,6,53,8,1066.8359375,854.365478515625,0,1,objects,big,0,1,objects,A,big,VS,O,52,E03,214.361328125
2,1,0,22036,2.6171875,0.1484375,6,0,3,30,13,856.417785644531,322.847900390625,0,1,objects,big,0,1,objects,A,big,VS,O,52,E03,214.361328125
0,1,0,22038,3.005859375,0.169921875,7,0,13,71,15,1244.47229003906,864.846984863281,0,1,faces,male,0,1,objects,A,big,VS,O,52,E03,214.361328125
0,1,1,22040,3.365234375,0.119140625,8,0,9,60,17,1182.22033691406,615.481018066406,0,1,faces,female,0,1,objects,A,big,VS,O,52,E03,214.361328125
0,1,0,22042,3.748046875,0.18359375,9,0,11,69,19,1240.24658203125,651.050476074219,0,1,faces,male,0,1,objects,A,big,VS,O,52,E03,214.361328125
2,1,0,22043,3.97265625,1.5234375,10,0,8,58,20,1153.25732421875,451.555114746094,0,1,objects,small,0,1,objects,A,big,VS,O,52,E03,214.361328125
0,1,1,22062,0.48828125,0.11328125,1,1,10,37,3,928.077209472656,164.071868896484,0,1,objects,small,0,1,objects,A,small,VS,O,53,E03,218.560546875
0,1,0,22064,0.81640625,0.173828125,2,1,11,39,5,924.806518554688,324.704711914062,0,1,faces,female,0,1,objects,A,small,VS,O,53,E03,218.560546875
0,1,0,22066,1.3046875,0.15234375,3,1,4,14,7,675.619018554688,566.599243164062,0,1,objects,small,0,1,objects,A,small,VS,O,53,E03,218.560546875
0,1,0,22070,2.02734375,0.25,4,1,13,53,11,1038.11206054688,850.108093261719,0,1,objects,big,0,1,objects,A,small,VS,O,53,E03,218.560546875
0,1,1,22072,2.42578125,0.125,5,0,8,33,13,849.037475585938,624.234619140625,0,1,faces,male,0,1,objects,A,small,VS,O,53,E03,218.560546875
0,1,0,22073,2.576171875,0.107421875,6,0,7,32,14,843.794738769531,553.131408691406,0,1,faces,female,0,1,objects,A,small,VS,O,53,E03,218.560546875
0,1,0,22074,2.765625,0.216796875,7,0,15,75,15,1340.66662597656,379.979370117188,0,1,faces,male,0,1,objects,A,small,VS,O,53,E03,218.560546875
0,1,1,22077,3.27734375,0.146484375,8,0,5,26,18,747.162536621094,854.420715332031,0,1,objects,small,0,1,objects,A,small,VS,O,53,E03,218.560546875
0,1,0,22080,3.794921875,0.169921875,9,0,6,30,21,850.807983398438,352.683044433594,0,1,faces,female,0,1,objects,A,small,VS,O,53,E03,218.560546875
1,1,0,22102,0.41015625,0.14453125,1,1,6,40,3,950.872802734375,448.575653076172,0,1,objects,big,0,1,faces,A,male,EX,F,54,E03,222.759765625
0,1,1,22103,0.595703125,0.169921875,2,1,5,30,4,819.545288085938,365.212677001953,0,1,objects,small,0,1,faces,A,male,EX,F,54,E03,222.759765625
2,1,0,22105,1.091796875,0.125,3,1,6,40,6,1008.39562988281,421.142700195312,0,1,objects,big,0,1,faces,A,male,EX,F,54,E03,222.759765625
0,1,0,22106,2.20703125,0.1640625,4,1,12,70,7,1292.03051757812,715.792053222656,0,1,faces,male,0,1,faces,A,male,EX,F,54,E03,222.759765625
0,1,1,22110,3.234375,0.146484375,5,0,1,1,11,525.427673339844,168.48078918457,0,1,faces,female,0,1,faces,A,male,EX,F,54,E03,222.759765625
0,1,0,22129,0.27734375,0.58203125,1,1,6,51,1,1070.74853515625,650.58935546875,0,1,objects,small,0,1,faces,A,male,EX,I,55,E03,226.958984375
0,1,0,22130,0.8984375,0.326171875,2,1,8,60,2,1165.59802246094,650.891906738281,0,1,faces,female,0,1,faces,A,male,EX,I,55,E03,226.958984375
1,1,1,22131,1.294921875,0.1015625,3,1,12,66,3,1240.30480957031,337.204742431641,0,1,faces,male,0,1,faces,A,male,EX,I,55,E03,226.958984375
2,1,1,22133,1.47265625,0.166015625,4,1,12,66,5,1256.36730957031,347.261993408203,0,1,faces,male,0,1,faces,A,male,EX,I,55,E03,226.958984375
0,1,0,22165,0.255859375,0.15625,1,1,11,49,1,1038.05834960938,451.300598144531,0,1,faces,male,0,1,faces,A,male,VS,I,56,E03,231.158203125
0,1,1,22166,0.4921875,0.177734375,2,1,6,11,2,650.954650878906,245.522750854492,0,1,faces,male,0,1,faces,A,male,VS,I,56,E03,231.158203125
0,1,0,22170,1.109375,0.171875,3,1,10,21,6,741.864807128906,368.929382324219,0,1,faces,male,0,1,faces,A,male,VS,I,56,E03,231.158203125
0,1,0,22172,1.552734375,0.125,4,1,8,16,8,660.481689453125,769.024597167969,0,1,faces,female,0,1,faces,A,male,VS,I,56,E03,231.158203125
0,1,1,22173,1.751953125,0.1484375,5,0,3,7,9,546.0703125,753.476440429688,0,1,faces,female,0,1,faces,A,male,VS,I,56,E03,231.158203125
0,1,1,22175,2.3828125,0.224609375,6,0,4,9,11,545.4658203125,965.551208496094,0,1,faces,male,0,1,faces,A,male,VS,I,56,E03,231.158203125
1,1,0,22178,2.923828125,0.158203125,7,0,15,69,14,1264.28881835938,674.824096679688,0,1,faces,male,0,1,faces,A,male,VS,I,56,E03,231.158203125
0,1,0,22181,3.484375,0.15625,8,0,14,67,17,1259.10009765625,474.672271728516,0,1,faces,female,0,1,faces,A,male,VS,I,56,E03,231.158203125
2,1,1,22182,3.701171875,0.1484375,9,0,15,69,18,1279.07189941406,658.801818847656,0,1,faces,male,0,1,faces,A,male,VS,I,56,E03,231.158203125
0,1,0,22201,0.44921875,0.197265625,1,1,1,2,3,545.515075683594,274.561798095703,0,1,faces,female,0,0,faces,P,female,VS,I,57,E03,235.357421875
0,1,1,22204,1.12109375,0.154296875,2,1,12,47,6,1063.75036621094,266.533813476562,0,1,faces,female,0,0,faces,P,female,VS,I,57,E03,235.357421875
0,1,0,22205,1.341796875,0.1640625,3,1,14,69,7,1297.21276855469,634.13623046875,0,1,objects,big,0,0,faces,P,female,VS,I,57,E03,235.357421875
0,1,0,22206,1.54296875,0.2734375,4,1,13,60,8,1164.09924316406,659.3642578125,0,1,faces,female,0,0,faces,P,female,VS,I,57,E03,235.357421875
0,1,1,22207,1.892578125,0.162109375,5,0,10,36,9,841.20654296875,929.515930175781,0,1,faces,female,0,0,faces,P,female,VS,I,57,E03,235.357421875
1,1,0,22209,2.220703125,0.134765625,6,0,9,35,11,815.645812988281,800.629455566406,0,1,faces,male,0,0,faces,P,female,VS,I,57,E03,235.357421875
0,1,0,22210,2.375,0.158203125,7,0,8,34,12,834.697509765625,779.595397949219,0,1,faces,male,0,0,faces,P,female,VS,I,57,E03,235.357421875
0,1,0,22211,2.599609375,0.16796875,8,0,7,31,13,838.08837890625,459.858184814453,0,1,faces,male,0,0,faces,P,female,VS,I,57,E03,235.357421875
0,1,1,22212,2.837890625,0.1015625,9,0,5,25,14,740.682006835938,788.953063964844,0,1,faces,male,0,0,faces,P,female,VS,I,57,E03,235.357421875
2,1,0,22214,3.22265625,0.18359375,10,0,9,35,16,836.548950195312,864.986633300781,0,1,faces,male,0,0,faces,P,female,VS,I,57,E03,235.357421875
0,1,1,22215,3.490234375,0.134765625,11,0,3,4,17,536.342651367188,476.775573730469,0,1,faces,male,0,0,faces,P,female,VS,I,57,E03,235.357421875
0,1,0,22217,3.796875,0.171875,12,0,4,14,19,634.62890625,543.676879882812,0,1,objects,big,0,0,faces,P,female,VS,I,57,E03,235.357421875
0,1,1,22244,0.1953125,0.1875,1,1,6,20,2,751.089782714844,253.44401550293,0,1,faces,male,1,1,faces,P,female,VS,I,58,E03,239.556640625
1,1,0,22245,0.447265625,0.130859375,2,1,1,1,3,566.805419921875,173.240234375,0,1,faces,female,1,1,faces,P,female,VS,I,58,E03,239.556640625
2,1,1,22247,0.736328125,0.1171875,3,1,1,1,5,558.4609375,175.670150756836,0,1,faces,female,1,1,faces,P,female,VS,I,58,E03,239.556640625
0,1,0,22250,1.171875,0.111328125,4,1,4,5,8,535.728454589844,552.155334472656,0,1,faces,female,1,1,faces,P,female,VS,I,58,E03,239.556640625
1,1,0,22254,1.78515625,0.19921875,5,0,9,40,12,963.616821289062,475.610748291016,1,0,NaN,NaN,1,1,faces,P,female,VS,I,58,E03,239.556640625
0,1,0,22255,2.01953125,0.119140625,6,0,10,41,13,968.495849609375,544.085571289062,0,1,faces,male,1,1,faces,P,female,VS,I,58,E03,239.556640625
2,1,1,22256,2.162109375,0.119140625,7,0,9,40,14,965.367431640625,462.820587158203,1,0,NaN,NaN,1,1,faces,P,female,VS,I,58,E03,239.556640625
0,0,1,22261,3.646484375,0.140625,8,0,11,59,19,1179.41809082031,529.616516113281,0,1,faces,female,1,1,faces,P,female,VS,I,58,E03,239.556640625
1,0,1,22286,1.05078125,0.44921875,1,1,3,14,8,641.778198242188,553.139282226562,1,0,NaN,NaN,1,1,objects,P,small,VS,O,59,E03,243.755859375
2,0,1,22289,3.21484375,0.12890625,2,1,3,14,11,633.972595214844,579.242492675781,1,0,NaN,NaN,1,1,objects,P,small,VS,O,59,E03,243.755859375
0,1,0,22310,0.2265625,0.142578125,1,1,11,50,1,1035.69152832031,585.325988769531,0,1,faces,female,1,1,faces,P,male,VS,I,60,E03,247.955078125
0,1,1,22311,0.439453125,0.15234375,2,1,6,29,2,877.293090820312,269.472808837891,0,1,faces,female,1,1,faces,P,male,VS,I,60,E03,247.955078125
0,1,0,22313,0.830078125,0.140625,3,1,5,19,4,719.206298828125,177.503845214844,0,1,faces,male,1,1,faces,P,male,VS,I,60,E03,247.955078125
0,1,0,22314,1.033203125,0.1328125,4,1,1,2,5,530.993469238281,270.530029296875,0,1,faces,male,1,1,faces,P,male,VS,I,60,E03,247.955078125
0,1,0,22322,3.376953125,0.16796875,5,0,15,69,13,1221.26110839844,596.870910644531,0,1,objects,big,1,1,faces,P,male,VS,I,60,E03,247.955078125
0,1,0,22323,3.615234375,0.134765625,6,0,7,33,14,811.571411132812,683.056640625,1,0,NaN,NaN,1,1,faces,P,male,VS,I,60,E03,247.955078125
0,1,0,22345,0.23828125,0.12109375,1,1,11,42,1,911.737182617188,649.67333984375,0,1,objects,big,0,1,objects,P,small,VS,O,61,E03,252.154296875
0,1,0,22346,0.423828125,0.193359375,2,1,5,16,2,678.43408203125,707.406005859375,0,1,faces,female,0,1,objects,P,small,VS,O,61,E03,252.154296875
1,1,1,22348,0.814453125,0.21484375,3,1,6,17,4,698.282470703125,878.540832519531,0,1,faces,male,0,1,objects,P,small,VS,O,61,E03,252.154296875
2,1,1,22350,1.103515625,0.376953125,4,1,6,17,6,708.525512695312,890.205322265625,0,1,faces,male,0,1,objects,P,small,VS,O,61,E03,252.154296875
0,1,1,22351,1.48828125,0.48828125,5,0,7,18,7,704.013854980469,894.857604980469,0,1,objects,small,0,1,objects,P,small,VS,O,61,E03,252.154296875
3,1,0,22354,2.359375,0.3984375,6,0,6,17,10,690.268310546875,889.983154296875,0,1,faces,male,0,1,objects,P,small,VS,O,61,E03,252.154296875
4,1,0,22356,2.8359375,1.380859375,7,0,6,17,12,687.724914550781,884.473022460938,0,1,faces,male,0,1,objects,P,small,VS,O,61,E03,252.154296875
0,1,1,22380,0.4609375,0.1171875,1,1,5,31,3,885.626098632812,449.052276611328,0,1,faces,male,0,1,objects,A,small,EX,O,62,E03,256.353515625
0,1,0,22384,1.345703125,0.115234375,2,1,8,40,7,990.407836914062,408.869018554688,0,1,faces,female,0,1,objects,A,small,EX,O,62,E03,256.353515625
1,1,1,22386,1.615234375,0.23046875,3,1,11,49,9,1019.03796386719,434.017120361328,0,1,faces,male,0,1,objects,A,small,EX,O,62,E03,256.353515625
2,1,1,22389,2.134765625,0.740234375,4,1,11,49,12,1014.55328369141,433.010467529297,0,1,faces,male,0,1,objects,A,small,EX,O,62,E03,256.353515625
0,1,1,22642,0.388671875,0.14453125,1,1,3,22,3,770.216186523438,440.619354248047,0,1,faces,female,1,1,faces,P,male,VS,I,63,E03,260.552734375
0,1,1,22646,0.908203125,0.353515625,2,1,7,37,7,968.595275878906,149.876358032227,0,1,faces,male,1,1,faces,P,male,VS,I,63,E03,260.552734375
0,1,1,22653,2.02734375,0.19140625,3,1,4,27,14,754.980224609375,947.753662109375,0,1,faces,female,1,1,faces,P,male,VS,I,63,E03,260.552734375
0,1,1,22654,2.283203125,0.103515625,4,1,1,9,15,552.866271972656,969.707763671875,0,1,faces,male,1,1,faces,P,male,VS,I,63,E03,260.552734375
0,1,0,22657,2.701171875,0.181640625,5,0,8,43,18,949.867126464844,751.31005859375,0,1,faces,female,1,1,faces,P,male,VS,I,63,E03,260.552734375
0,1,0,22658,2.943359375,0.12109375,6,0,10,53,19,1096.62377929688,888.067260742188,0,1,objects,big,1,1,faces,P,male,VS,I,63,E03,260.552734375
0,1,0,22659,3.087890625,0.10546875,7,0,12,63,20,1145.17565917969,932.427062988281,0,1,objects,big,1,1,faces,P,male,VS,I,63,E03,260.552734375
0,1,0,22660,3.240234375,0.1640625,8,0,15,79,21,1329.4287109375,717.67236328125,1,0,NaN,NaN,1,1,faces,P,male,VS,I,63,E03,260.552734375
0,1,0,22666,0.404296875,0.26171875,1,1,8,24,2,754.829162597656,623.424499511719,0,1,faces,female,0,1,faces,A,female,EX,F,64,E03,264.751953125
1,1,1,22667,0.7421875,0.12109375,2,1,9,29,3,853.274475097656,200.143692016602,0,1,faces,male,0,1,faces,A,female,EX,F,64,E03,264.751953125
0,1,1,22669,1.162109375,0.25390625,3,1,10,38,5,977.347595214844,243.987289428711,0,1,objects,small,0,1,faces,A,female,EX,F,64,E03,264.751953125
0,1,1,22672,1.6484375,1.017578125,4,1,11,46,8,1080.01171875,150.701202392578,0,1,objects,big,0,1,faces,A,female,EX,F,64,E03,264.751953125
0,1,0,22675,3.435546875,0.28515625,5,0,5,14,11,689.354553222656,531.138061523438,0,1,objects,big,0,1,faces,A,female,EX,F,64,E03,264.751953125
2,1,1,22676,3.77734375,0.205078125,6,0,9,29,12,895.338073730469,239.465881347656,0,1,faces,male,0,1,faces,A,female,EX,F,64,E03,264.751953125
1,1,0,22696,0.533203125,0.248046875,1,1,11,57,3,1196.15185546875,369.864044189453,0,1,faces,female,0,1,faces,A,female,VS,I,65,E03,268.951171875
1,1,0,22697,0.857421875,0.2421875,2,1,7,42,4,1010.33660888672,644.630187988281,0,1,faces,female,0,1,faces,A,female,VS,I,65,E03,268.951171875
0,1,1,22699,1.314453125,0.115234375,3,1,10,53,6,1016.76086425781,828.467102050781,0,1,faces,male,0,1,faces,A,female,VS,I,65,E03,268.951171875
0,1,0,22701,1.72265625,0.240234375,4,1,9,51,8,1089.65270996094,639.597839355469,0,1,faces,female,0,1,faces,A,female,VS,I,65,E03,268.951171875
0,1,0,22702,2.029296875,0.1875,5,0,6,35,9,896.713073730469,807.478698730469,0,1,faces,female,0,1,faces,A,female,VS,I,65,E03,268.951171875
0,1,0,22703,2.28125,0.181640625,6,0,3,9,10,599.368774414062,900.902648925781,0,1,faces,female,0,1,faces,A,female,VS,I,65,E03,268.951171875
0,1,1,22704,2.59375,0.1015625,7,0,1,1,11,567.549926757812,137.413665771484,0,1,faces,female,0,1,faces,A,female,VS,I,65,E03,268.951171875
0,1,1,22707,3.1875,0.16796875,8,0,14,76,14,1384.58410644531,439.229522705078,0,1,faces,male,0,1,faces,A,female,VS,I,65,E03,268.951171875
2,1,0,22710,3.59765625,0.162109375,9,0,11,57,17,1193.77783203125,377.177459716797,0,1,faces,female,0,1,faces,A,female,VS,I,65,E03,268.951171875
2,1,1,22711,3.828125,0.14453125,10,0,7,42,18,1004.35723876953,628.373291015625,0,1,faces,female,0,1,faces,A,female,VS,I,65,E03,268.951171875
1,1,0,22723,0.24609375,0.154296875,1,1,7,41,2,975.917053222656,584.122863769531,0,1,faces,male,0,1,objects,A,big,VS,O,66,E03,273.150390625
1,1,1,22725,0.61328125,0.203125,2,1,15,76,4,1387.75866699219,459.921905517578,0,1,objects,big,0,1,objects,A,big,VS,O,66,E03,273.150390625
0,1,1,22727,1.0234375,0.10546875,3,1,5,37,6,981.026916503906,184.714813232422,0,1,faces,female,0,1,objects,A,big,VS,O,66,E03,273.150390625
0,1,1,22730,1.515625,0.12890625,4,1,12,71,9,1218.21435546875,885.853393554688,0,1,faces,female,0,1,objects,A,big,VS,O,66,E03,273.150390625
0,1,0,22732,1.787109375,0.109375,5,0,10,62,11,1176.36071777344,854.238403320312,0,1,objects,big,0,1,objects,A,big,VS,O,66,E03,273.150390625
0,1,1,22733,1.978515625,0.130859375,6,0,3,27,12,785.988952636719,916.701354980469,0,1,faces,female,0,1,objects,A,big,VS,O,66,E03,273.150390625
0,1,1,22735,2.32421875,0.1484375,7,0,8,43,14,973.88037109375,720.082885742188,0,1,faces,male,0,1,objects,A,big,VS,O,66,E03,273.150390625
2,1,0,22737,2.65234375,0.1875,8,0,7,41,16,975.974426269531,547.471740722656,0,1,faces,male,0,1,objects,A,big,VS,O,66,E03,273.150390625
0,1,0,22739,3.083984375,0.10546875,9,0,9,56,18,1182.72448730469,261.234802246094,0,1,faces,male,0,1,objects,A,big,VS,O,66,E03,273.150390625
0,1,1,22740,3.251953125,0.287109375,10,0,6,38,19,960.516235351562,262.405334472656,0,1,objects,small,0,1,objects,A,big,VS,O,66,E03,273.150390625
2,1,0,22742,3.732421875,0.197265625,11,0,15,76,21,1339.11242675781,428.475402832031,0,1,objects,big,0,1,objects,A,big,VS,O,66,E03,273.150390625
0,1,0,22743,3.951171875,0.140625,12,0,11,67,22,1291.44421386719,454.145965576172,0,1,objects,big,0,1,objects,A,big,VS,O,66,E03,273.150390625
1,1,0,22758,0.197265625,0.130859375,1,1,9,50,1,1084.07470703125,528.351440429688,0,1,objects,small,0,0,faces,P,female,VS,F,67,E03,277.349609375
1,1,1,22760,0.5390625,0.171875,2,1,5,20,3,782.701904296875,264.557189941406,0,1,faces,female,0,0,faces,P,female,VS,F,67,E03,277.349609375
0,1,0,22762,0.880859375,0.22265625,3,1,7,31,5,862.556762695312,453.396453857422,0,1,faces,male,0,0,faces,P,female,VS,F,67,E03,277.349609375
2,1,0,22763,1.166015625,0.13671875,4,1,9,50,6,1083.83264160156,570.740844726562,0,1,objects,small,0,0,faces,P,female,VS,F,67,E03,277.349609375
0,1,1,22764,1.330078125,0.1875,5,0,12,60,7,1167.5263671875,657.561645507812,0,1,faces,male,0,0,faces,P,female,VS,F,67,E03,277.349609375
0,1,1,22766,1.66796875,0.1171875,6,0,10,53,9,1045.61938476562,846.293395996094,0,1,faces,female,0,0,faces,P,female,VS,F,67,E03,277.349609375
0,1,0,22768,1.982421875,0.279296875,7,0,8,35,11,892.228393554688,848.547180175781,0,1,faces,male,0,0,faces,P,female,VS,F,67,E03,277.349609375
0,1,0,22769,2.333984375,0.21875,8,0,15,72,12,1265.08337402344,936.970520019531,0,1,faces,female,0,0,faces,P,female,VS,F,67,E03,277.349609375
0,1,0,22770,2.744140625,0.14453125,9,0,4,16,13,680.043151855469,762.193542480469,0,1,faces,male,0,0,faces,P,female,VS,F,67,E03,277.349609375
0,1,1,22771,2.990234375,0.15234375,10,0,2,8,14,563.341430664062,857.489685058594,0,1,objects,big,0,0,faces,P,female,VS,F,67,E03,277.349609375
2,1,0,22775,3.755859375,0.14453125,11,0,5,20,18,780.164916992188,260.601593017578,0,1,faces,female,0,0,faces,P,female,VS,F,67,E03,277.349609375
0,1,0,22776,3.986328125,0.724609375,12,0,13,64,19,1261.80017089844,184.637481689453,0,1,faces,male,0,0,faces,P,female,VS,F,67,E03,277.349609375
1,1,1,22787,0.232421875,0.1328125,1,1,10,50,1,1086.86096191406,508.947387695312,1,0,NaN,NaN,1,1,faces,P,female,VS,F,68,E03,281.548828125
0,1,0,22789,0.56640625,0.162109375,2,1,12,60,3,1170.57507324219,645.573547363281,0,1,faces,female,1,1,faces,P,female,VS,F,68,E03,281.548828125
2,1,1,22790,0.765625,0.12890625,3,1,10,50,4,1081.12329101562,579.406860351562,1,0,NaN,NaN,1,1,faces,P,female,VS,F,68,E03,281.548828125
0,0,1,22793,2.92578125,0.123046875,4,1,3,23,7,793.580932617188,576.021179199219,0,1,faces,male,1,1,faces,P,female,VS,F,68,E03,281.548828125
3,0,0,22794,3.1171875,2.646484375,5,0,10,50,8,1070.76928710938,559.496337890625,1,0,NaN,NaN,1,1,faces,P,female,VS,F,68,E03,281.548828125
0,1,0,22807,0.216796875,0.453125,1,1,9,31,1,902.40576171875,473.132141113281,0,1,faces,male,0,1,objects,A,big,EX,O,69,E03,285.748046875
0,1,1,22808,0.7421875,0.12109375,2,1,10,43,2,975.0546875,732.228149414062,0,1,faces,male,0,1,objects,A,big,EX,O,69,E03,285.748046875
0,1,0,22810,1.21484375,0.419921875,3,1,13,69,4,1273.10925292969,639.983642578125,0,1,objects,big,0,1,objects,A,big,EX,O,69,E03,285.748046875
1,1,0,22812,1.89453125,0.25390625,4,1,4,11,6,666.945922851562,267.480895996094,0,1,faces,male,0,1,objects,A,big,EX,O,69,E03,285.748046875
2,1,0,22814,2.263671875,0.20703125,5,0,4,11,8,678.047607421875,276.348541259766,0,1,faces,male,0,1,objects,A,big,EX,O,69,E03,285.748046875
0,1,1,22829,0.3203125,0.162109375,1,1,6,32,2,907.250305175781,565.833190917969,0,1,faces,male,0,0,faces,P,female,VS,F,70,E03,289.947265625
0,1,1,22831,0.74609375,0.12109375,2,1,9,51,4,1050.78063964844,648.298400878906,0,1,faces,female,0,0,faces,P,female,VS,F,70,E03,289.947265625
0,1,0,22834,1.322265625,0.15234375,3,1,8,37,7,910.539489746094,171.429458618164,0,1,faces,female,0,0,faces,P,female,VS,F,70,E03,289.947265625
0,1,1,22835,1.53125,0.119140625,4,1,5,19,8,798.683776855469,184.589736938477,0,1,faces,male,0,0,faces,P,female,VS,F,70,E03,289.947265625
0,1,1,22838,2.078125,0.123046875,5,0,11,64,11,1260.38720703125,187.439117431641,0,1,faces,male,0,0,faces,P,female,VS,F,70,E03,289.947265625
0,1,1,22841,2.576171875,0.326171875,6,0,13,75,14,1375.79650878906,372.523864746094,0,1,faces,male,0,0,faces,P,female,VS,F,70,E03,289.947265625
0,1,0,22842,2.92578125,0.265625,7,0,14,76,15,1367.83776855469,467.212799072266,0,1,faces,female,0,0,faces,P,female,VS,F,70,E03,289.947265625
0,1,1,22846,3.79296875,0.107421875,8,0,3,7,19,597.881103515625,745.432373046875,0,1,faces,female,0,0,faces,P,female,VS,F,70,E03,289.947265625
1,1,0,22864,0.228515625,0.138671875,1,1,5,21,1,805.746887207031,293.458557128906,0,1,faces,female,0,0,faces,A,male,VS,F,71,E03,294.146484375
0,1,0,22865,0.4375,0.16015625,2,1,10,37,2,950.211791992188,187.316192626953,0,1,faces,male,0,0,faces,A,male,VS,F,71,E03,294.146484375
2,1,1,22867,0.78125,0.11328125,3,1,5,21,4,780.194458007812,374.802642822266,0,1,faces,female,0,0,faces,A,male,VS,F,71,E03,294.146484375
0,1,0,22870,1.1796875,0.146484375,4,1,14,64,7,1273.37023925781,181.77278137207,0,1,faces,male,0,0,faces,A,male,VS,F,71,E03,294.146484375
0,1,0,22874,2.00390625,0.169921875,5,0,3,17,11,673.922668457031,816.633422851562,0,1,objects,small,0,0,faces,A,male,VS,F,71,E03,294.146484375
0,1,0,22875,2.21484375,0.173828125,6,0,6,25,12,757.864135742188,759.777465820312,0,1,faces,female,0,0,faces,A,male,VS,F,71,E03,294.146484375
1,1,0,22876,2.443359375,0.115234375,7,0,7,27,13,805.202392578125,945.435363769531,0,1,faces,female,0,0,faces,A,male,VS,F,71,E03,294.146484375
0,1,0,22877,2.595703125,0.203125,8,0,9,36,14,887.718688964844,951.657775878906,0,1,faces,female,0,0,faces,A,male,VS,F,71,E03,294.146484375
0,1,0,22878,2.837890625,0.193359375,9,0,11,45,15,981.240051269531,949.940002441406,0,1,faces,male,0,0,faces,A,male,VS,F,71,E03,294.146484375
2,1,1,22879,3.091796875,0.205078125,10,0,7,27,16,797.447448730469,947.187255859375,0,1,faces,female,0,0,faces,A,male,VS,F,71,E03,294.146484375
0,1,0,22881,3.947265625,0.107421875,11,0,13,62,18,1146.6357421875,846.745666503906,0,1,faces,male,0,0,faces,A,male,VS,F,71,E03,294.146484375
0,1,0,22897,0.474609375,0.173828125,1,1,12,69,2,1211.49792480469,636.085510253906,0,1,objects,big,1,1,objects,P,small,VS,O,72,E03,298.345703125
1,0,0,22899,0.958984375,0.2734375,2,1,8,28,4,855.80859375,184.060180664062,1,0,NaN,NaN,1,1,objects,P,small,VS,O,72,E03,298.345703125
2,0,0,22901,1.306640625,0.119140625,3,1,8,28,6,866.134643554688,188.183547973633,1,0,NaN,NaN,1,1,objects,P,small,VS,O,72,E03,298.345703125
0,0,0,22904,1.830078125,0.123046875,4,1,3,19,9,768.304565429688,185.459823608398,0,1,faces,female,1,1,objects,P,small,VS,O,72,E03,298.345703125
1,0,1,22906,2.83203125,0.20703125,5,0,10,35,11,869.6513671875,843.53857421875,0,1,faces,female,1,1,objects,P,small,VS,O,72,E03,298.345703125
2,0,1,22908,3.15234375,0.16796875,6,0,10,35,13,877.699645996094,846.455932617188,0,1,faces,female,1,1,objects,P,small,VS,O,72,E03,298.345703125
0,0,1,22909,3.400390625,0.15234375,7,0,14,71,14,1268.19714355469,809.71435546875,0,1,faces,male,1,1,objects,P,small,VS,O,72,E03,298.345703125
0,0,1,22911,3.765625,0.169921875,8,0,13,70,16,1266.62622070312,720.646545410156,0,1,faces,male,1,1,objects,P,small,VS,O,72,E03,298.345703125
0,1,0,22930,0.203125,0.142578125,1,1,9,48,1,1057.7587890625,360.80810546875,0,1,faces,female,1,1,objects,P,big,VS,O,73,E03,302.544921875
0,1,0,22931,0.423828125,0.279296875,2,1,4,19,2,768.93212890625,166.605667114258,0,1,objects,big,1,1,objects,P,big,VS,O,73,E03,302.544921875
0,1,1,22932,0.7734375,0.146484375,3,1,6,31,3,871.867614746094,479.911254882812,0,1,objects,big,1,1,objects,P,big,VS,O,73,E03,302.544921875
0,1,0,22934,1.1171875,0.103515625,4,1,3,14,5,693.416870117188,581.78369140625,0,1,faces,male,1,1,objects,P,big,VS,O,73,E03,302.544921875
0,0,1,22936,1.4375,0.263671875,5,0,1,7,7,575.249206542969,755.517578125,1,0,NaN,NaN,1,1,objects,P,big,VS,O,73,E03,302.544921875
0,0,1,22939,2.576171875,0.19140625,6,0,5,26,10,768.80322265625,835.899169921875,0,1,objects,small,1,1,objects,P,big,VS,O,73,E03,302.544921875
0,0,0,22943,3.33984375,1.083984375,7,0,12,59,14,1162.67797851562,550.769287109375,0,1,faces,female,1,1,objects,P,big,VS,O,73,E03,302.544921875
0,1,0,22974,0.50390625,0.154296875,1,1,1,2,3,574.654541015625,282.6279296875,0,1,faces,female,1,0,faces,P,male,VS,I,74,E03,306.744140625
0,1,0,22975,0.7265625,0.216796875,2,1,5,28,4,859.847473144531,190.024139404297,0,1,faces,female,1,0,faces,P,male,VS,I,74,E03,306.744140625
0,1,0,22976,1.0078125,0.2421875,3,1,9,48,5,1089.66735839844,368.437805175781,0,1,faces,male,1,0,faces,P,male,VS,I,74,E03,306.744140625
0,1,0,22979,1.583984375,0.134765625,4,1,10,50,8,1052.24182128906,557.458190917969,0,1,faces,female,1,0,faces,P,male,VS,I,74,E03,306.744140625
0,1,0,22980,1.783203125,0.158203125,5,0,8,44,9,968.413757324219,830.845275878906,0,1,objects,big,1,0,faces,P,male,VS,I,74,E03,306.744140625
0,1,0,22981,1.984375,0.216796875,6,0,11,53,10,1070.16369628906,847.751403808594,0,1,faces,male,1,0,faces,P,male,VS,I,74,E03,306.744140625
0,1,0,22982,2.271484375,0.2734375,7,0,4,26,11,777.142883300781,845.869079589844,0,1,faces,male,1,0,faces,P,male,VS,I,74,E03,306.744140625
0,1,1,22985,2.91015625,0.111328125,8,0,15,71,14,1228.7314453125,848.45361328125,1,0,NaN,NaN,1,0,faces,P,male,VS,I,74,E03,306.744140625
0,1,1,22987,3.24609375,0.111328125,9,0,14,68,16,1223.67736816406,567.268005371094,0,1,faces,female,1,0,faces,P,male,VS,I,74,E03,306.744140625
0,1,0,22990,3.978515625,0.146484375,10,0,12,65,19,1261.63916015625,271.579162597656,0,1,faces,female,1,0,faces,P,male,VS,I,74,E03,306.744140625
1,1,0,23015,0.349609375,0.208984375,1,1,8,32,2,879.331604003906,545.808349609375,0,1,faces,female,0,1,faces,A,male,EX,F,75,E03,310.943359375
0,1,0,23016,0.623046875,0.169921875,2,1,11,60,3,1129.14111328125,621.449462890625,0,1,objects,big,0,1,faces,A,male,EX,F,75,E03,310.943359375
1,1,1,23017,1.55078125,0.18359375,3,1,7,29,4,841.190063476562,267.858642578125,0,1,faces,male,0,1,faces,A,male,EX,F,75,E03,310.943359375
2,1,1,23019,1.82421875,0.341796875,4,1,7,29,6,859.235717773438,263.867004394531,0,1,faces,male,0,1,faces,A,male,EX,F,75,E03,310.943359375
2,1,1,23025,3.708984375,0.193359375,5,0,8,32,12,883.870910644531,544.659423828125,0,1,faces,female,0,1,faces,A,male,EX,F,75,E03,310.943359375
3,1,1,23027,3.98046875,0.1171875,6,0,8,32,14,872.194396972656,546.042175292969,0,1,faces,female,0,1,faces,A,male,EX,F,75,E03,310.943359375
0,1,0,23047,0.318359375,0.115234375,1,1,5,20,1,716.589233398438,248.301116943359,0,1,faces,female,0,1,objects,A,small,VS,O,76,E03,315.142578125
1,1,0,23048,0.55078125,0.236328125,2,1,3,6,2,576.729675292969,676.022277832031,0,1,faces,female,0,1,objects,A,small,VS,O,76,E03,315.142578125
0,1,0,23049,0.853515625,0.154296875,3,1,7,27,3,775.835632324219,990.279541015625,0,1,objects,big,0,1,objects,A,small,VS,O,76,E03,315.142578125
2,1,1,23051,1.248046875,0.140625,4,1,3,6,5,577.511596679688,602.297119140625,0,1,faces,female,0,1,objects,A,small,VS,O,76,E03,315.142578125
0,1,0,23052,1.46484375,0.20703125,5,0,10,53,6,1060.50512695312,868.17041015625,0,1,faces,female,0,1,objects,A,small,VS,O,76,E03,315.142578125
0,1,0,23053,1.732421875,0.201171875,6,0,14,71,7,1242.27697753906,870.951293945312,0,1,objects,small,0,1,objects,A,small,VS,O,76,E03,315.142578125
0,1,0,23055,2.150390625,0.15234375,7,0,12,58,9,1160.61047363281,487.023742675781,0,1,faces,male,0,1,objects,A,small,VS,O,76,E03,315.142578125
0,1,0,23056,2.36328125,0.197265625,8,0,11,56,10,1172.60534667969,274.901580810547,0,1,objects,big,0,1,objects,A,small,VS,O,76,E03,315.142578125
0,1,0,23062,3.28515625,0.29296875,9,0,8,41,16,975.841979980469,556.046875,0,1,objects,small,0,1,objects,A,small,VS,O,76,E03,315.142578125
0,1,0,23063,3.611328125,0.107421875,10,0,9,50,17,1056.06433105469,559.884826660156,0,1,faces,female,0,1,objects,A,small,VS,O,76,E03,315.142578125
0,1,0,23064,3.794921875,0.18359375,11,0,2,5,18,589.55859375,580.898132324219,0,1,objects,small,0,1,objects,A,small,VS,O,76,E03,315.142578125
0,1,0,23078,0.271484375,0.16796875,1,1,6,39,1,945.097717285156,340.784881591797,0,1,objects,big,1,1,faces,P,male,VS,F,77,E03,319.341796875
0,1,1,23079,0.478515625,0.146484375,2,1,8,47,2,1023.10052490234,283.736968994141,0,1,faces,male,1,1,faces,P,male,VS,F,77,E03,319.341796875
1,1,0,23082,0.912109375,0.13671875,3,1,10,64,5,1262.57824707031,175.146987915039,1,0,NaN,NaN,1,1,faces,P,male,VS,F,77,E03,319.341796875
0,1,0,23083,1.072265625,0.11328125,4,1,12,73,6,1326.26184082031,182.560440063477,0,1,faces,female,1,1,faces,P,male,VS,F,77,E03,319.341796875
2,1,1,23084,1.24609375,0.1328125,5,0,10,64,7,1233.10119628906,163.461502075195,1,0,NaN,NaN,1,1,faces,P,male,VS,F,77,E03,319.341796875
0,0,0,23086,1.90625,0.412109375,6,0,13,74,9,1344.83056640625,267.882049560547,0,1,faces,female,1,1,faces,P,male,VS,F,77,E03,319.341796875
0,0,0,23088,2.546875,0.181640625,7,0,11,70,11,1240.86743164062,767.24951171875,0,1,faces,male,1,1,faces,P,male,VS,F,77,E03,319.341796875
0,0,1,23089,2.798828125,0.169921875,8,0,4,35,12,861.919616699219,867.57373046875,0,1,faces,female,1,1,faces,P,male,VS,F,77,E03,319.341796875
0,0,1,23092,3.24609375,0.22265625,9,0,9,61,15,1137.83081054688,755.423645019531,0,1,faces,male,1,1,faces,P,male,VS,F,77,E03,319.341796875
3,0,0,23095,3.861328125,0.283203125,10,0,10,64,18,1234.68591308594,186.149108886719,1,0,NaN,NaN,1,1,faces,P,male,VS,F,77,E03,319.341796875
0,1,0,23109,0.966796875,0.142578125,1,1,10,56,4,1147.42077636719,199.950942993164,0,1,faces,female,1,1,objects,P,small,VS,O,78,E03,323.541015625
0,1,1,23110,1.16015625,0.18359375,2,1,8,47,5,1078.31140136719,280.938812255859,1,0,NaN,NaN,1,1,objects,P,small,VS,O,78,E03,323.541015625
0,0,0,23115,2.544921875,0.205078125,3,1,5,33,10,868.625366210938,684.521606445312,0,1,objects,big,1,1,objects,P,small,VS,O,78,E03,323.541015625
0,0,0,23116,2.89453125,0.2421875,4,1,14,79,11,1350.40112304688,763.281921386719,0,1,objects,small,1,1,objects,P,small,VS,O,78,E03,323.541015625
0,0,1,23117,3.2109375,0.1796875,5,0,7,45,12,950.621276855469,924.602905273438,0,1,faces,female,1,1,objects,P,small,VS,O,78,E03,323.541015625
1,1,0,23134,0.23046875,0.171875,1,1,10,40,1,948.484619140625,440.216217041016,0,1,faces,female,0,1,faces,A,female,VS,F,79,E03,327.740234375
0,1,0,23135,0.4765625,0.181640625,2,1,8,29,2,851.809997558594,225.738998413086,0,1,objects,small,0,1,faces,A,female,VS,F,79,E03,327.740234375
0,1,1,23137,0.88671875,0.1328125,3,1,5,22,4,713.856018066406,462.756622314453,0,1,faces,male,0,1,faces,A,female,VS,F,79,E03,327.740234375
0,1,0,23139,1.251953125,0.1015625,4,1,7,25,6,809.908142089844,701.567321777344,0,1,objects,small,0,1,faces,A,female,VS,F,79,E03,327.740234375
0,1,0,23140,1.375,0.134765625,5,0,6,24,7,779.650085449219,674.438293457031,0,1,faces,female,0,1,faces,A,female,VS,F,79,E03,327.740234375
1,1,0,23141,1.5703125,0.232421875,6,0,11,43,8,966.875183105469,733.73583984375,0,1,faces,female,0,1,faces,A,female,VS,F,79,E03,327.740234375
0,1,0,23142,1.87109375,0.23046875,7,0,3,18,9,681.606018066406,925.779907226562,0,1,faces,female,0,1,faces,A,female,VS,F,79,E03,327.740234375
0,1,0,23144,2.375,0.17578125,8,0,9,36,11,887.420654296875,908.714172363281,0,1,faces,male,0,1,faces,A,female,VS,F,79,E03,327.740234375
2,1,0,23145,2.62109375,0.2109375,9,0,10,40,12,996.771484375,453.144470214844,0,1,faces,female,0,1,faces,A,female,VS,F,79,E03,327.740234375
0,1,0,23146,2.896484375,0.197265625,10,0,13,67,13,1259.31176757812,454.563262939453,0,1,faces,male,0,1,faces,A,female,VS,F,79,E03,327.740234375
0,1,1,23147,3.15234375,0.111328125,11,0,15,74,14,1356.501953125,243.43342590332,0,1,objects,big,0,1,faces,A,female,VS,F,79,E03,327.740234375
0,1,0,23149,3.44921875,0.22265625,12,0,14,71,16,1269.14392089844,826.456115722656,0,1,faces,female,0,1,faces,A,female,VS,F,79,E03,327.740234375
2,1,1,23150,3.73828125,0.15625,13,0,11,43,17,983.5927734375,737.65185546875,0,1,faces,female,0,1,faces,A,female,VS,F,79,E03,327.740234375
0,1,0,23176,0.271484375,0.44140625,1,1,8,39,1,955.792541503906,351.277252197266,0,1,objects,small,0,1,faces,A,female,EX,I,80,E03,331.939453125
0,1,0,23177,0.78125,0.130859375,2,1,10,58,2,1152.94445800781,479.720886230469,0,1,faces,male,0,1,faces,A,female,EX,I,80,E03,331.939453125
0,1,0,23178,0.931640625,0.38671875,3,1,11,59,3,1166.77111816406,520.431762695312,0,1,objects,big,0,1,faces,A,female,EX,I,80,E03,331.939453125
0,1,0,23179,2.15625,0.29296875,4,1,14,79,4,1362.90661621094,733.937438964844,0,1,objects,small,0,1,faces,A,female,EX,I,80,E03,331.939453125
0,1,1,23180,2.53515625,0.123046875,5,0,6,33,5,891.502807617188,680.916076660156,0,1,faces,female,0,1,faces,A,female,EX,I,80,E03,331.939453125
0,1,1,23182,3.04296875,0.361328125,6,0,4,19,7,743.358093261719,188.19548034668,0,1,objects,small,0,1,faces,A,female,EX,I,80,E03,331.939453125
0,1,0,23185,3.84765625,0.19140625,7,0,12,66,10,1240.71838378906,340.427520751953,0,1,faces,female,0,1,faces,A,female,EX,I,80,E03,331.939453125
0,1,0,23197,0.287109375,0.115234375,1,1,11,62,1,1157.93933105469,822.926696777344,0,1,faces,male,0,1,objects,A,small,EX,O,81,E03,336.138671875
0,1,1,23201,1.240234375,0.18359375,2,1,3,13,5,681.931335449219,484.875335693359,0,1,faces,male,0,1,objects,A,small,EX,O,81,E03,336.138671875
1,1,1,23203,1.751953125,0.302734375,3,1,5,31,7,871.93505859375,467.899200439453,0,1,objects,small,0,1,objects,A,small,EX,O,81,E03,336.138671875
0,1,1,23205,2.291015625,0.115234375,4,1,14,68,9,1255.63220214844,520.082824707031,0,1,faces,female,0,1,objects,A,small,EX,O,81,E03,336.138671875
2,1,0,23208,2.953125,0.71484375,5,0,5,31,12,899.660949707031,464.435455322266,0,1,objects,small,0,1,objects,A,small,EX,O,81,E03,336.138671875
0,1,0,23210,3.931640625,0.64453125,6,0,10,58,14,1170.0771484375,459.466430664062,0,1,faces,male,0,1,objects,A,small,EX,O,81,E03,336.138671875
1,1,0,23231,0.232421875,0.1328125,1,1,9,42,1,935.30859375,656.71142578125,0,1,faces,female,1,1,faces,P,female,VS,I,82,E03,340.337890625
1,1,0,23232,0.40625,0.203125,2,1,7,33,2,864.226928710938,666.099182128906,0,1,faces,male,1,1,faces,P,female,VS,I,82,E03,340.337890625
2,1,0,23233,0.642578125,0.228515625,3,1,9,42,3,957.332397460938,660.330383300781,0,1,faces,female,1,1,faces,P,female,VS,I,82,E03,340.337890625
0,1,1,23236,1.1484375,0.115234375,4,1,1,2,6,576.543701171875,275.657409667969,0,1,faces,female,1,1,faces,P,female,VS,I,82,E03,340.337890625
0,1,1,23238,1.3828125,0.15625,5,0,3,12,8,649.006225585938,342.271331787109,0,1,faces,male,1,1,faces,P,female,VS,I,82,E03,340.337890625
0,1,1,23240,1.7109375,0.125,6,0,11,55,10,1126.50659179688,156.512329101562,0,1,objects,big,1,1,faces,P,female,VS,I,82,E03,340.337890625
0,1,1,23243,2.177734375,0.115234375,7,0,13,63,13,1192.54931640625,981.377319335938,0,1,faces,female,1,1,faces,P,female,VS,I,82,E03,340.337890625
0,1,0,23245,2.5625,0.18359375,8,0,4,18,15,652.0205078125,920.382080078125,0,1,objects,small,1,1,faces,P,female,VS,I,82,E03,340.337890625
0,1,1,23246,2.783203125,0.126953125,9,0,2,8,16,576.295349121094,862.103332519531,1,0,NaN,NaN,1,1,faces,P,female,VS,I,82,E03,340.337890625
2,0,0,23248,3.544921875,0.19921875,10,0,7,33,18,850.621459960938,684.742553710938,0,1,faces,male,1,1,faces,P,female,VS,I,82,E03,340.337890625
3,0,0,23249,3.779296875,0.345703125,11,0,9,42,19,953.801086425781,671.21875,0,1,faces,female,1,1,faces,P,female,VS,I,82,E03,340.337890625
0,1,0,23265,0.427734375,0.341796875,1,1,4,15,4,623.665283203125,639.472900390625,0,1,faces,male,0,1,faces,A,male,EX,I,83,E03,344.537109375
0,1,0,23267,0.984375,0.189453125,2,1,6,42,6,936.563781738281,655.71337890625,0,1,faces,female,0,1,faces,A,male,EX,I,83,E03,344.537109375
0,1,1,23268,1.248046875,0.17578125,3,1,11,68,7,1270.68310546875,541.948608398438,0,1,objects,big,0,1,faces,A,male,EX,I,83,E03,344.537109375
0,1,0,23300,0.21484375,0.197265625,1,1,6,32,1,862.242126464844,559.062377929688,0,1,faces,female,0,0,faces,A,male,VS,I,84,E03,348.736328125
0,1,0,23302,0.61328125,0.255859375,2,1,11,58,3,1151.86413574219,480.505310058594,0,1,faces,male,0,0,faces,A,male,VS,I,84,E03,348.736328125
0,1,0,23303,0.93359375,0.1171875,3,1,14,65,4,1221.29479980469,235.046173095703,0,1,faces,female,0,0,faces,A,male,VS,I,84,E03,348.736328125
0,1,0,23304,1.126953125,0.2109375,4,1,9,46,5,1075.03234863281,178.1787109375,0,1,faces,male,0,0,faces,A,male,VS,I,84,E03,348.736328125
0,1,0,23306,1.552734375,0.197265625,5,0,3,22,7,756.863891601562,475.342987060547,0,1,faces,female,0,0,faces,A,male,VS,I,84,E03,348.736328125
0,1,0,23313,3.103515625,0.189453125,6,0,4,26,14,769.354248046875,861.179748535156,0,1,objects,big,0,0,faces,A,male,VS,I,84,E03,348.736328125
0,1,0,23314,3.353515625,0.19921875,7,0,8,45,15,943.587158203125,958.470153808594,0,1,faces,male,0,0,faces,A,male,VS,I,84,E03,348.736328125
0,1,1,23315,3.625,0.126953125,8,0,15,69,16,1233.04699707031,658.42578125,0,1,faces,female,0,0,faces,A,male,VS,I,84,E03,348.736328125
0,1,0,23331,0.404296875,0.1015625,1,1,4,11,2,674.576293945312,211.098892211914,0,1,objects,small,1,1,faces,P,female,VS,I,85,E03,352.935546875
0,1,1,23332,0.5234375,0.16796875,2,1,3,10,3,655.501281738281,177.286361694336,1,0,NaN,NaN,1,1,faces,P,female,VS,I,85,E03,352.935546875
1,0,1,23339,1.94140625,0.109375,3,1,14,76,10,1326.39123535156,443.0693359375,0,1,faces,female,1,1,faces,P,female,VS,I,85,E03,352.935546875
2,0,1,23342,2.30078125,0.30078125,4,1,14,76,13,1361.67578125,480.944946289062,0,1,faces,female,1,1,faces,P,female,VS,I,85,E03,352.935546875
0,0,0,23343,2.66796875,0.255859375,5,0,15,79,14,1358.26928710938,752.808471679688,0,1,objects,big,1,1,faces,P,female,VS,I,85,E03,352.935546875
0,0,1,23344,2.9921875,0.140625,6,0,10,54,15,1106.9033203125,902.922424316406,0,1,objects,small,1,1,faces,P,female,VS,I,85,E03,352.935546875
0,1,0,23363,0.224609375,0.29296875,1,1,6,49,1,1070.98059082031,459.325164794922,0,1,faces,male,1,1,objects,P,small,VS,O,86,E03,357.134765625
1,0,1,23366,0.837890625,0.26953125,2,1,2,15,4,672.793884277344,658.304565429688,1,0,NaN,NaN,1,1,objects,P,small,VS,O,86,E03,357.134765625
2,0,1,23370,1.587890625,0.23828125,3,1,2,15,8,655.813720703125,645.5595703125,1,0,NaN,NaN,1,1,objects,P,small,VS,O,86,E03,357.134765625
0,0,1,23374,2.6796875,0.123046875,4,1,13,69,12,1244.89111328125,633.348449707031,0,1,objects,big,1,1,objects,P,small,VS,O,86,E03,357.134765625
3,0,1,23377,3.4609375,0.216796875,5,0,2,15,15,664.310546875,642.027160644531,1,0,NaN,NaN,1,1,objects,P,small,VS,O,86,E03,357.134765625
4,0,1,23379,3.84765625,0.16015625,6,0,2,15,17,649.588684082031,635.818359375,1,0,NaN,NaN,1,1,objects,P,small,VS,O,86,E03,357.134765625
0,1,0,23411,1.380859375,0.162109375,1,1,14,69,9,1236.970703125,656.40380859375,0,1,faces,female,0,1,objects,A,big,VS,O,87,E03,361.333984375
0,1,0,23412,1.564453125,0.1796875,2,1,9,61,10,1192.55346679688,736.15234375,0,1,faces,male,0,1,objects,A,big,VS,O,87,E03,361.333984375
1,1,0,23413,1.806640625,0.134765625,3,1,7,44,11,964.661315917969,825.371887207031,0,1,faces,male,0,1,objects,A,big,VS,O,87,E03,361.333984375
1,1,0,23414,1.966796875,0.1953125,4,1,6,35,12,895.344055175781,822.258056640625,0,1,objects,small,0,1,objects,A,big,VS,O,87,E03,361.333984375
0,1,1,23415,2.224609375,0.109375,5,0,10,63,13,1134.53234863281,905.276916503906,0,1,objects,big,0,1,objects,A,big,VS,O,87,E03,361.333984375
0,1,0,23417,2.52734375,0.322265625,6,0,15,71,15,1277.2705078125,822.762329101562,0,1,objects,big,0,1,objects,A,big,VS,O,87,E03,361.333984375
0,1,0,23418,2.95703125,0.123046875,7,0,3,13,16,639.791809082031,416.982879638672,0,1,faces,female,0,1,objects,A,big,VS,O,87,E03,361.333984375
0,1,1,23419,3.15234375,0.134765625,8,0,2,4,17,580.815124511719,405.336547851562,0,1,objects,small,0,1,objects,A,big,VS,O,87,E03,361.333984375
0,1,0,23421,3.544921875,0.138671875,9,0,4,16,19,684.569519042969,743.781677246094,0,1,faces,female,0,1,objects,A,big,VS,O,87,E03,361.333984375
2,1,0,23422,3.74609375,0.134765625,10,0,6,35,20,889.840209960938,816.283630371094,0,1,objects,small,0,1,objects,A,big,VS,O,87,E03,361.333984375
2,1,0,23423,3.908203125,0.12109375,11,0,7,44,21,964.845642089844,812.551574707031,0,1,faces,male,0,1,objects,A,big,VS,O,87,E03,361.333984375
0,1,0,23437,0.193359375,0.1875,1,1,6,49,1,1059.19738769531,391.729583740234,0,1,faces,female,1,1,faces,P,male,VS,F,88,E03,365.533203125
0,1,0,23443,1.443359375,0.322265625,2,1,11,68,7,1291.59777832031,502.932586669922,0,1,faces,male,1,1,faces,P,male,VS,F,88,E03,365.533203125
1,1,0,23444,1.798828125,0.21484375,3,1,13,77,8,1381.21508789062,512.187377929688,0,1,faces,male,1,1,faces,P,male,VS,F,88,E03,365.533203125
0,1,0,23445,2.083984375,0.22265625,4,1,8,51,9,1071.49401855469,615.349792480469,0,1,faces,female,1,1,faces,P,male,VS,F,88,E03,365.533203125
0,1,0,23446,2.376953125,0.1484375,5,0,2,17,10,689.26416015625,819.176574707031,0,1,objects,small,1,1,faces,P,male,VS,F,88,E03,365.533203125
0,0,1,23447,2.55078125,0.373046875,6,0,4,26,11,754.025512695312,820.250549316406,1,0,NaN,NaN,1,1,faces,P,male,VS,F,88,E03,365.533203125
2,0,1,23452,3.8671875,0.955078125,7,0,13,77,16,1370.51818847656,511.362945556641,0,1,faces,male,1,1,faces,P,male,VS,F,88,E03,365.533203125
0,1,0,23468,0.244140625,0.169921875,1,1,10,40,1,959.607421875,413.550415039062,0,1,faces,female,1,1,objects,P,big,VS,O,89,E03,369.732421875
0,1,1,23472,0.970703125,0.134765625,2,1,5,21,5,756.33154296875,327.853576660156,0,1,faces,male,1,1,objects,P,big,VS,O,89,E03,369.732421875
0,1,0,23476,1.54296875,0.125,3,1,2,8,9,553.854736328125,801.961547851562,0,1,faces,female,1,1,objects,P,big,VS,O,89,E03,369.732421875
1,1,0,23477,1.759765625,0.173828125,4,1,7,27,10,786.177490234375,920.16845703125,1,0,NaN,NaN,1,1,objects,P,big,VS,O,89,E03,369.732421875
1,1,0,23478,2.080078125,0.126953125,5,0,14,62,11,1156.33239746094,860.065307617188,0,1,objects,big,1,1,objects,P,big,VS,O,89,E03,369.732421875
2,1,1,23479,2.28125,0.14453125,6,0,7,27,12,736.076599121094,919.2099609375,1,0,NaN,NaN,1,1,objects,P,big,VS,O,89,E03,369.732421875
2,0,1,23481,3.53515625,0.125,7,0,14,62,14,1125.06506347656,826.608947753906,0,1,objects,big,1,1,objects,P,big,VS,O,89,E03,369.732421875
0,1,0,23495,0.310546875,0.23046875,1,1,7,31,2,880.521667480469,404.033447265625,0,1,objects,big,1,1,objects,P,big,VS,O,90,E03,373.931640625
1,0,0,23502,1.71875,0.2265625,2,1,5,19,9,766.894592285156,94.8759307861328,1,0,NaN,NaN,1,1,objects,P,big,VS,O,90,E03,373.931640625
1,0,0,23503,2.12890625,0.15234375,3,1,10,47,10,1077.10400390625,290.111114501953,0,1,objects,small,1,1,objects,P,big,VS,O,90,E03,373.931640625
0,0,0,23504,2.298828125,0.146484375,4,1,11,48,11,1064.46398925781,301.841430664062,0,1,faces,female,1,1,objects,P,big,VS,O,90,E03,373.931640625
2,0,1,23509,3.33203125,0.166015625,5,0,5,19,16,761.969604492188,121.214088439941,1,0,NaN,NaN,1,1,objects,P,big,VS,O,90,E03,373.931640625
2,0,0,23510,3.595703125,0.68359375,6,0,10,47,17,1053.60388183594,203.063522338867,0,1,objects,small,1,1,objects,P,big,VS,O,90,E03,373.931640625
0,1,0,23533,0.466796875,0.169921875,1,1,7,50,3,1048.71520996094,499.390808105469,0,1,objects,small,0,1,objects,A,small,VS,O,91,E03,378.130859375
0,1,0,23534,0.716796875,0.236328125,2,1,12,65,4,1244.97485351562,211.684692382812,0,1,objects,big,0,1,objects,A,small,VS,O,91,E03,378.130859375
1,1,0,23535,1.099609375,0.185546875,3,1,1,4,5,543.306030273438,435.775787353516,0,1,objects,small,0,1,objects,A,small,VS,O,91,E03,378.130859375
0,1,0,23536,1.404296875,0.10546875,4,1,3,7,6,577.227844238281,759.628784179688,0,1,faces,male,0,1,objects,A,small,VS,O,91,E03,378.130859375
0,1,0,23537,1.5546875,0.173828125,5,0,4,26,7,757.899169921875,827.671813964844,0,1,faces,male,0,1,objects,A,small,VS,O,91,E03,378.130859375
0,1,0,23538,1.78515625,0.11328125,6,0,6,36,8,860.707641601562,905.434265136719,0,1,faces,male,0,1,objects,A,small,VS,O,91,E03,378.130859375
0,1,0,23539,1.947265625,0.20703125,7,0,8,52,9,1110.04052734375,766.388122558594,0,1,faces,female,0,1,objects,A,small,VS,O,91,E03,378.130859375
1,1,0,23541,2.451171875,0.146484375,8,0,9,58,11,1203.87060546875,394.265625,0,1,objects,small,0,1,objects,A,small,VS,O,91,E03,378.130859375
0,1,0,23542,2.6484375,0.12109375,9,0,13,67,12,1253.57763671875,411.867889404297,0,1,objects,big,0,1,objects,A,small,VS,O,91,E03,378.130859375
2,1,0,23543,2.794921875,0.197265625,10,0,9,58,13,1183.49694824219,408.479278564453,0,1,objects,small,0,1,objects,A,small,VS,O,91,E03,378.130859375
1,1,0,23544,3.064453125,0.1875,11,0,5,31,14,883.961608886719,409.198974609375,0,1,faces,male,0,1,objects,A,small,VS,O,91,E03,378.130859375
2,1,1,23546,3.40625,0.1015625,12,0,1,4,16,591.288208007812,406.631713867188,0,1,objects,small,0,1,objects,A,small,VS,O,91,E03,378.130859375
2,1,1,23547,3.740234375,0.109375,13,0,5,31,17,843.584411621094,403.004669189453,0,1,faces,male,0,1,objects,A,small,VS,O,91,E03,378.130859375
0,1,1,23565,0.1875,0.13671875,1,1,3,40,1,921.463500976562,455.309265136719,0,1,objects,big,0,1,faces,A,female,EX,I,92,E03,382.330078125
0,1,0,23569,0.79296875,0.1875,2,1,8,60,5,1164.64636230469,592.156860351562,0,1,faces,female,0,1,faces,A,female,EX,I,92,E03,382.330078125
0,1,0,23570,1.02734375,0.16796875,3,1,10,65,6,1216.36291503906,272.725250244141,0,1,faces,female,0,1,faces,A,female,EX,I,92,E03,382.330078125
0,1,0,23572,2.013671875,0.18359375,4,1,13,78,8,1374.322265625,601.593322753906,0,1,faces,male,0,1,faces,A,female,EX,I,92,E03,382.330078125
0,1,0,23611,0.14453125,0.173828125,1,1,10,40,1,920.668823242188,395.087707519531,0,1,faces,male,1,1,objects,P,small,VS,O,93,E03,386.529296875
0,1,0,23615,1.55859375,0.1640625,2,1,6,24,5,754.911499023438,634.394226074219,0,1,faces,male,1,1,objects,P,small,VS,O,93,E03,386.529296875
1,1,1,23616,1.794921875,0.1484375,3,1,11,46,6,1030.31140136719,129.462524414062,1,0,NaN,NaN,1,1,objects,P,small,VS,O,93,E03,386.529296875
2,0,1,23622,2.79296875,0.353515625,4,1,11,46,12,1065.74572753906,92.7127380371094,1,0,NaN,NaN,1,1,objects,P,small,VS,O,93,E03,386.529296875
0,1,1,23648,0.6875,0.205078125,1,1,2,5,6,549.561096191406,505.643737792969,0,1,faces,female,1,1,faces,P,male,VS,F,94,E03,390.728515625
0,1,0,23652,1.578125,0.154296875,2,1,7,39,10,982.424560546875,376.728240966797,0,1,objects,small,1,1,faces,P,male,VS,F,94,E03,390.728515625
0,1,1,23653,1.80078125,0.1484375,3,1,9,50,11,1070.43566894531,553.626525878906,0,1,faces,male,1,1,faces,P,male,VS,F,94,E03,390.728515625
0,1,0,23655,2.1953125,0.16796875,4,1,6,33,13,838.799072265625,627.310424804688,0,1,objects,small,1,1,faces,P,male,VS,F,94,E03,390.728515625
0,1,0,23656,2.392578125,0.2265625,5,0,5,24,14,760.036071777344,634.557861328125,0,1,faces,male,1,1,faces,P,male,VS,F,94,E03,390.728515625
0,1,0,23657,2.6875,0.173828125,6,0,4,17,15,673.848266601562,836.792419433594,0,1,faces,male,1,1,faces,P,male,VS,F,94,E03,390.728515625
0,1,1,23658,2.939453125,0.13671875,7,0,12,71,16,1266.76440429688,881.575012207031,1,0,NaN,NaN,1,1,faces,P,male,VS,F,94,E03,390.728515625
0,1,1,23681,0.611328125,0.16015625,1,1,8,39,4,951.80078125,291.394256591797,0,1,faces,female,0,1,faces,A,female,VS,F,95,E03,394.927734375
1,1,1,23684,1.26171875,0.134765625,2,1,1,3,7,583.151245117188,297.391540527344,0,1,faces,male,0,1,faces,A,female,VS,F,95,E03,394.927734375
2,1,1,23687,1.708984375,0.142578125,3,1,1,3,10,557.951538085938,300.845184326172,0,1,faces,male,0,1,faces,A,female,VS,F,95,E03,394.927734375
0,1,1,23689,2.05859375,0.12109375,4,1,4,29,12,864.959777832031,278.354217529297,0,1,objects,small,0,1,faces,A,female,VS,F,95,E03,394.927734375
0,1,0,23693,2.505859375,0.224609375,5,0,6,33,16,856.821350097656,623.830444335938,0,1,faces,female,0,1,faces,A,female,VS,F,95,E03,394.927734375
0,1,1,23694,2.791015625,0.125,6,0,2,16,17,655.644714355469,738.729736328125,0,1,faces,female,0,1,faces,A,female,VS,F,95,E03,394.927734375
0,1,0,23696,3.111328125,0.283203125,7,0,13,52,19,1064.3564453125,748.245239257812,0,1,faces,female,0,1,faces,A,female,VS,F,95,E03,394.927734375
0,1,0,23698,3.603515625,0.46875,8,0,3,18,21,659.647705078125,907.806335449219,0,1,faces,female,0,1,faces,A,female,VS,F,95,E03,394.927734375
0,1,0,23719,0.349609375,0.146484375,1,1,8,50,2,1077.31750488281,534.300415039062,0,1,faces,female,0,1,faces,A,male,VS,F,96,E03,399.126953125
