refix,pretarget,multifix,urevent,tonset,dur_added,rank,first_rank,stposrel,stposabs,n,x,y,istarget,isdistractor,distractor_cat,ditractor_atr,trial_targetseen,trial_correct,trial_cat,trial_resp,trial_atr,trial_type,trial_cattype,trial_number,trial_subject,trial_bgn_latency
0,1,1,23088,0.380859375,0.294921875,1,1,5,14,1,627.670593261719,497.029632568359,0,1,faces,female,0,1,faces,A,female,VS,I,1,E04,0.201171875
0,1,0,23094,1.921875,0.220703125,2,1,13,52,7,1059.93713378906,772.957946777344,0,1,faces,male,0,1,faces,A,female,VS,I,1,E04,0.201171875
0,1,0,23095,2.166015625,0.203125,3,1,14,54,8,1027.41882324219,925.081970214844,0,1,faces,female,0,1,faces,A,female,VS,I,1,E04,0.201171875
0,1,1,23096,2.435546875,0.16796875,4,1,6,15,9,632.272216796875,598.161193847656,0,1,faces,male,0,1,faces,A,female,VS,I,1,E04,0.201171875
0,1,0,23107,0.208984375,0.216796875,1,1,6,42,1,947.011962890625,662.171325683594,0,1,faces,female,1,1,objects,P,big,VS,O,2,E04,4.400390625
0,1,0,23108,0.45703125,0.109375,2,1,3,25,2,771.5869140625,747.442932128906,0,1,objects,small,1,1,objects,P,big,VS,O,2,E04,4.400390625
0,1,0,23109,0.603515625,0.201171875,3,1,1,5,3,533.082275390625,525.327209472656,0,1,objects,big,1,1,objects,P,big,VS,O,2,E04,4.400390625
0,1,0,23111,1.033203125,0.14453125,4,1,4,39,5,926.611999511719,316.064208984375,0,1,faces,female,1,1,objects,P,big,VS,O,2,E04,4.400390625
0,1,1,23112,1.203125,0.19140625,5,0,11,58,6,1137.51501464844,411.801849365234,1,0,NaN,NaN,1,1,objects,P,big,VS,O,2,E04,4.400390625
0,0,1,23114,2.5625,0.142578125,6,0,10,53,8,1024.03625488281,809.200012207031,0,1,faces,female,1,1,objects,P,big,VS,O,2,E04,4.400390625
0,0,0,23116,3.001953125,0.376953125,7,0,15,80,10,1390.32434082031,827.691650390625,0,1,objects,big,1,1,objects,P,big,VS,O,2,E04,4.400390625
0,0,0,23117,3.447265625,0.146484375,8,0,2,10,11,632.060546875,97.7944107055664,0,1,faces,male,1,1,objects,P,big,VS,O,2,E04,4.400390625
1,1,0,23134,0.19140625,0.318359375,1,1,8,34,1,856.395141601562,727.585388183594,0,1,faces,female,0,1,faces,A,female,EX,F,3,E04,8.599609375
0,1,1,23135,0.552734375,0.134765625,2,1,1,4,2,526.855773925781,458.969665527344,0,1,objects,small,0,1,faces,A,female,EX,F,3,E04,8.599609375
0,1,0,23138,1.0859375,0.287109375,3,1,9,40,5,951.616394042969,398.5869140625,0,1,faces,male,0,1,faces,A,female,EX,F,3,E04,8.599609375
0,1,1,23140,1.5546875,0.1875,4,1,10,56,7,1116.0849609375,196.683578491211,0,1,faces,male,0,1,faces,A,female,EX,F,3,E04,8.599609375
0,1,1,23142,1.935546875,0.15234375,5,0,4,12,9,627.589660644531,365.617828369141,0,1,objects,big,0,1,faces,A,female,EX,F,3,E04,8.599609375
0,1,1,23147,2.9140625,0.22265625,6,0,15,78,14,1332.34692382812,660.513366699219,0,1,faces,male,0,1,faces,A,female,EX,F,3,E04,8.599609375
0,1,0,23149,3.3125,0.19140625,7,0,14,76,16,1358.88586425781,461.423278808594,0,1,objects,big,0,1,faces,A,female,EX,F,3,E04,8.599609375
2,1,0,23151,3.697265625,0.296875,8,0,8,34,18,857.8212890625,742.085754394531,0,1,faces,female,0,1,faces,A,female,EX,F,3,E04,8.599609375
0,1,0,23168,0.263671875,0.185546875,1,1,3,13,1,623.665222167969,420.702331542969,0,1,faces,male,1,1,objects,P,small,VS,O,4,E04,12.798828125
0,1,0,23169,0.486328125,0.111328125,2,1,2,11,2,632.425537109375,216.064514160156,0,1,objects,small,1,1,objects,P,small,VS,O,4,E04,12.798828125
1,0,0,23170,0.630859375,0.240234375,3,1,5,39,3,930.882751464844,290.745422363281,1,0,NaN,NaN,1,1,objects,P,small,VS,O,4,E04,12.798828125
0,0,0,23171,0.8984375,0.140625,4,1,8,47,4,1077.94287109375,230.6435546875,0,1,objects,big,1,1,objects,P,small,VS,O,4,E04,12.798828125
2,0,0,23172,1.0625,0.4375,5,0,5,39,5,924.950073242188,306.319091796875,1,0,NaN,NaN,1,1,objects,P,small,VS,O,4,E04,12.798828125
0,0,1,23173,1.560546875,0.13671875,6,0,6,44,6,971.380676269531,811.2138671875,0,1,objects,big,1,1,objects,P,small,VS,O,4,E04,12.798828125
0,0,0,23175,2.037109375,0.310546875,7,0,11,57,8,1155.0537109375,324.863403320312,0,1,faces,female,1,1,objects,P,small,VS,O,4,E04,12.798828125
0,0,0,23176,2.373046875,0.21484375,8,0,9,55,9,1136.88732910156,179.690841674805,0,1,faces,male,1,1,objects,P,small,VS,O,4,E04,12.798828125
0,0,0,23178,2.912109375,0.28515625,9,0,14,64,11,1225.15466308594,89.9900817871094,0,1,faces,female,1,1,objects,P,small,VS,O,4,E04,12.798828125
0,0,1,23179,3.23046875,0.162109375,10,0,15,66,12,1213.22778320312,322.714324951172,0,1,faces,male,1,1,objects,P,small,VS,O,4,E04,12.798828125
0,0,0,23181,3.60546875,0.236328125,11,0,12,58,14,1167.05822753906,461.104919433594,0,1,faces,female,1,1,objects,P,small,VS,O,4,E04,12.798828125
0,1,1,23192,0.265625,0.16796875,1,1,4,22,1,798.9462890625,441.812469482422,0,1,faces,male,0,1,faces,A,male,EX,F,5,E04,16.998046875
0,1,0,23194,0.755859375,0.1953125,2,1,2,13,3,616.678405761719,431.960845947266,0,1,objects,small,0,1,faces,A,male,EX,F,5,E04,16.998046875
0,1,1,23195,0.98828125,0.1484375,3,1,7,29,4,868.457214355469,260.395416259766,0,1,faces,male,0,1,faces,A,male,EX,F,5,E04,16.998046875
1,1,0,23197,1.4296875,0.140625,4,1,14,73,6,1365.75439453125,161.389297485352,0,1,faces,female,0,1,faces,A,male,EX,F,5,E04,16.998046875
1,1,1,23199,1.763671875,0.12890625,5,0,12,68,8,1263.15173339844,512.415893554688,0,1,faces,male,0,1,faces,A,male,EX,F,5,E04,16.998046875
0,1,1,23202,2.283203125,0.1328125,6,0,6,27,11,734.041015625,959.340087890625,0,1,faces,female,0,1,faces,A,male,EX,F,5,E04,16.998046875
0,1,0,23204,2.6328125,0.212890625,7,0,8,36,13,862.906188964844,953.835266113281,0,1,faces,male,0,1,faces,A,male,EX,F,5,E04,16.998046875
2,1,0,23205,2.896484375,0.134765625,8,0,12,68,14,1277.59643554688,554.409301757812,0,1,faces,male,0,1,faces,A,male,EX,F,5,E04,16.998046875
0,1,1,23206,3.0546875,0.1484375,9,0,15,75,15,1354.19885253906,387.24462890625,0,1,objects,big,0,1,faces,A,male,EX,F,5,E04,16.998046875
2,1,0,23208,3.751953125,0.25,10,0,14,73,17,1339.82800292969,109.901832580566,0,1,faces,female,0,1,faces,A,male,EX,F,5,E04,16.998046875
0,1,1,23221,0.404296875,0.193359375,1,1,11,53,2,1051.10803222656,798.001098632812,0,1,faces,male,1,1,faces,P,male,VS,I,6,E04,21.197265625
0,1,0,23224,0.900390625,0.240234375,2,1,4,17,5,611.873352050781,836.572814941406,0,1,objects,big,1,1,faces,P,male,VS,I,6,E04,21.197265625
0,1,1,23225,1.162109375,0.142578125,3,1,2,8,6,539.98046875,844.317443847656,0,1,faces,female,1,1,faces,P,male,VS,I,6,E04,21.197265625
0,1,0,23227,1.453125,0.1171875,4,1,7,38,8,945.910217285156,289.681488037109,0,1,objects,small,1,1,faces,P,male,VS,I,6,E04,21.197265625
0,1,0,23229,1.796875,0.201171875,5,0,9,48,10,1028.06359863281,314.341430664062,0,1,faces,male,1,1,faces,P,male,VS,I,6,E04,21.197265625
0,0,0,23230,2.021484375,0.22265625,6,0,12,56,11,1135.80517578125,221.375411987305,1,0,NaN,NaN,1,1,faces,P,male,VS,I,6,E04,21.197265625
0,1,0,23244,0.3515625,0.197265625,1,1,8,34,2,833.628845214844,727.057006835938,0,1,faces,male,1,0,objects,P,big,VS,O,7,E04,25.396484375
0,1,1,23245,0.59375,0.193359375,2,1,3,4,3,565.536376953125,484.691650390625,0,1,objects,big,1,0,objects,P,big,VS,O,7,E04,25.396484375
0,1,1,23247,0.947265625,0.2265625,3,1,1,1,5,531.263061523438,179.970123291016,0,1,faces,female,1,0,objects,P,big,VS,O,7,E04,25.396484375
0,1,0,23249,1.32421875,0.728515625,4,1,12,71,7,1274.6337890625,863.386474609375,0,1,objects,small,1,0,objects,P,big,VS,O,7,E04,25.396484375
0,1,0,23250,2.0859375,0.126953125,5,0,11,70,8,1223.80200195312,737.293273925781,0,1,objects,big,1,0,objects,P,big,VS,O,7,E04,25.396484375
0,1,0,23251,2.234375,0.302734375,6,0,10,60,9,1160.94262695312,660.280395507812,0,1,objects,small,1,0,objects,P,big,VS,O,7,E04,25.396484375
0,1,0,23252,2.591796875,0.12890625,7,0,7,29,10,860.578430175781,244.087921142578,1,0,NaN,NaN,1,0,objects,P,big,VS,O,7,E04,25.396484375
0,1,0,23255,3.453125,0.14453125,8,0,6,16,13,652.163452148438,718.419311523438,0,1,faces,male,1,0,objects,P,big,VS,O,7,E04,25.396484375
0,1,1,23256,3.642578125,0.28515625,9,0,15,80,14,1372.27807617188,848.694641113281,0,1,faces,male,1,0,objects,P,big,VS,O,7,E04,25.396484375
0,1,0,23267,0.271484375,0.17578125,1,1,10,45,1,976.169677734375,954.291687011719,0,1,objects,small,1,1,faces,P,male,VS,F,8,E04,29.595703125
0,1,1,23268,0.466796875,0.1875,2,1,11,54,2,1053.26525878906,948.427673339844,0,1,faces,male,1,1,faces,P,male,VS,F,8,E04,29.595703125
0,1,0,23270,0.81640625,0.318359375,3,1,12,63,4,1168.25512695312,931.690551757812,0,1,faces,male,1,1,faces,P,male,VS,F,8,E04,29.595703125
0,1,0,23271,1.162109375,0.353515625,4,1,14,70,5,1283.42797851562,731.323974609375,0,1,faces,male,1,1,faces,P,male,VS,F,8,E04,29.595703125
0,0,1,23272,1.533203125,0.59765625,5,0,13,69,6,1272.19750976562,645.697814941406,1,0,NaN,NaN,1,1,faces,P,male,VS,F,8,E04,29.595703125
0,0,1,23275,2.9140625,0.142578125,6,0,5,31,9,890.408081054688,416.181976318359,0,1,faces,male,1,1,faces,P,male,VS,F,8,E04,29.595703125
0,0,1,23277,3.2734375,0.185546875,7,0,9,39,11,912.849731445312,331.586090087891,0,1,faces,female,1,1,faces,P,male,VS,F,8,E04,29.595703125
0,1,0,23290,0.537109375,0.361328125,1,1,6,35,2,868.861755371094,830.017578125,0,1,faces,female,0,1,faces,A,male,EX,I,9,E04,33.794921875
1,1,0,23292,1.099609375,0.16796875,2,1,12,68,4,1214.74890136719,525.568115234375,0,1,objects,big,0,1,faces,A,male,EX,I,9,E04,33.794921875
0,1,0,23293,1.28125,0.28515625,3,1,9,59,5,1185.18688964844,523.349975585938,0,1,objects,big,0,1,faces,A,male,EX,I,9,E04,33.794921875
2,1,1,23294,1.58984375,0.138671875,4,1,12,68,6,1236.54614257812,527.606872558594,0,1,objects,big,0,1,faces,A,male,EX,I,9,E04,33.794921875
0,1,0,23296,2.009765625,0.2109375,5,0,14,75,8,1320.33874511719,333.783050537109,0,1,objects,small,0,1,faces,A,male,EX,I,9,E04,33.794921875
0,1,0,23297,2.236328125,0.220703125,6,0,11,66,9,1284.45642089844,322.704772949219,0,1,faces,female,0,1,faces,A,male,EX,I,9,E04,33.794921875
0,1,1,23299,2.619140625,0.3203125,7,0,2,5,11,603.703674316406,539.015441894531,0,1,objects,small,0,1,faces,A,male,EX,I,9,E04,33.794921875
0,1,0,23300,2.955078125,0.189453125,8,0,5,14,12,637.002868652344,550.932678222656,0,1,faces,male,0,1,faces,A,male,EX,I,9,E04,33.794921875
0,1,1,23301,3.1875,0.205078125,9,0,3,6,13,513.464599609375,640.88525390625,0,1,faces,male,0,1,faces,A,male,EX,I,9,E04,33.794921875
0,1,0,23303,3.525390625,0.2109375,10,0,1,2,15,565.354553222656,217.696182250977,0,1,faces,male,0,1,faces,A,male,EX,I,9,E04,33.794921875
0,1,0,23304,3.755859375,0.30859375,11,0,4,11,16,618.197509765625,200.489883422852,0,1,faces,female,0,1,faces,A,male,EX,I,9,E04,33.794921875
0,1,0,23321,0.19140625,0.19921875,1,1,10,43,1,950.573364257812,696.148620605469,0,1,faces,male,0,1,faces,A,male,VS,I,10,E04,37.994140625
0,1,0,23322,0.416015625,0.30078125,2,1,13,61,2,1207.4619140625,756.859802246094,0,1,faces,female,0,1,faces,A,male,VS,I,10,E04,37.994140625
0,1,0,23323,0.791015625,0.283203125,3,1,2,8,3,589.756469726562,828.301696777344,0,1,faces,male,0,1,faces,A,male,VS,I,10,E04,37.994140625
0,1,1,23324,1.111328125,0.208984375,4,1,1,7,4,560.863403320312,733.310607910156,0,1,faces,male,0,1,faces,A,male,VS,I,10,E04,37.994140625
0,1,0,23326,1.4453125,0.181640625,5,0,6,15,6,658.307556152344,597.498718261719,0,1,objects,big,0,1,faces,A,male,VS,I,10,E04,37.994140625
0,1,0,23327,1.66015625,0.10546875,6,0,5,14,7,701.759643554688,502.298126220703,0,1,objects,big,0,1,faces,A,male,VS,I,10,E04,37.994140625
0,1,0,23328,1.7890625,0.1875,7,0,7,22,8,769.164306640625,443.484252929688,0,1,objects,small,0,1,faces,A,male,VS,I,10,E04,37.994140625
0,1,0,23332,2.48828125,0.310546875,8,0,11,47,12,1078.50402832031,214.027755737305,0,1,objects,big,0,1,faces,A,male,VS,I,10,E04,37.994140625
0,1,0,23334,3.154296875,0.26171875,9,0,14,67,14,1300.84680175781,423.287872314453,0,1,faces,female,0,1,faces,A,male,VS,I,10,E04,37.994140625
0,1,0,23335,3.466796875,0.181640625,10,0,15,71,15,1237.27819824219,813.545043945312,0,1,faces,female,0,1,faces,A,male,VS,I,10,E04,37.994140625
0,1,0,23354,0.501953125,0.220703125,1,1,2,15,4,683.170349121094,612.280700683594,0,1,faces,female,1,1,faces,P,female,VS,I,11,E04,42.193359375
1,1,0,23355,0.763671875,0.16015625,2,1,1,14,5,632.822387695312,531.328247070312,1,0,NaN,NaN,1,1,faces,P,female,VS,I,11,E04,42.193359375
2,1,1,23359,1.375,0.1484375,3,1,1,14,9,639.283325195312,538.141784667969,1,0,NaN,NaN,1,1,faces,P,female,VS,I,11,E04,42.193359375
0,0,0,23365,2.787109375,0.1328125,4,1,11,62,15,1196.97058105469,886.852355957031,0,1,faces,male,1,1,faces,P,female,VS,I,11,E04,42.193359375
0,0,0,23368,3.2890625,0.185546875,5,0,8,39,18,962.391296386719,299.657104492188,0,1,faces,female,1,1,faces,P,female,VS,I,11,E04,42.193359375
0,1,1,23383,0.400390625,0.11328125,1,1,7,26,3,777.01220703125,795.719116210938,0,1,faces,male,0,1,objects,A,big,VS,O,12,E04,46.392578125
0,1,0,23386,0.8359375,0.125,2,1,1,2,6,530.144958496094,210.220016479492,0,1,objects,small,0,1,objects,A,big,VS,O,12,E04,46.392578125
0,1,0,23388,1.095703125,0.169921875,3,1,5,21,8,777.033752441406,293.926055908203,0,1,objects,big,0,1,objects,A,big,VS,O,12,E04,46.392578125
0,1,1,23389,1.3046875,0.18359375,4,1,11,43,9,950.952209472656,702.058654785156,0,1,objects,big,0,1,objects,A,big,VS,O,12,E04,46.392578125
0,1,0,23392,1.8125,0.15234375,5,0,2,4,12,577.827209472656,481.961181640625,0,1,faces,female,0,1,objects,A,big,VS,O,12,E04,46.392578125
0,1,1,23395,2.23828125,0.130859375,6,0,13,49,15,1038.10314941406,428.059631347656,0,1,faces,male,0,1,objects,A,big,VS,O,12,E04,46.392578125
0,1,1,23397,2.58203125,0.19921875,7,0,14,64,17,1248.22546386719,104.506088256836,0,1,faces,male,0,1,objects,A,big,VS,O,12,E04,46.392578125
0,1,0,23417,0.23046875,0.1875,1,1,9,41,1,983.472900390625,514.210083007812,0,1,faces,male,0,1,faces,P,female,VS,I,13,E04,50.591796875
0,1,1,23418,0.45703125,0.2109375,2,1,5,22,2,763.328002929688,418.807739257812,0,1,faces,male,0,1,faces,P,female,VS,I,13,E04,50.591796875
0,1,1,23428,2.689453125,0.189453125,3,1,10,45,12,942.329406738281,914.381774902344,0,1,faces,male,0,1,faces,P,female,VS,I,13,E04,50.591796875
1,1,1,23457,0.5,0.142578125,1,1,2,3,4,543.045654296875,291.570617675781,0,1,faces,female,0,1,objects,A,small,VS,O,14,E04,54.791015625
0,1,0,23461,1.689453125,0.134765625,2,1,11,60,8,1162.59301757812,608.178039550781,0,1,objects,small,0,1,objects,A,small,VS,O,14,E04,54.791015625
0,1,0,23463,2.08984375,0.138671875,3,1,13,75,10,1334.43713378906,380.369537353516,0,1,faces,male,0,1,objects,A,small,VS,O,14,E04,54.791015625
0,1,0,23469,3.0234375,0.10546875,4,1,6,25,16,730.451721191406,731.762390136719,0,1,faces,male,0,1,objects,A,small,VS,O,14,E04,54.791015625
2,1,0,23472,3.68359375,0.107421875,5,0,2,3,19,587.745422363281,371.671447753906,0,1,faces,female,0,1,objects,A,small,VS,O,14,E04,54.791015625
0,1,1,23489,0.880859375,0.109375,1,1,4,17,1,622.802368164062,840.4375,0,1,faces,male,0,1,objects,A,small,EX,O,15,E04,58.990234375
1,1,0,23491,1.20703125,0.115234375,2,1,9,42,3,911.542846679688,676.000244140625,0,1,objects,small,0,1,objects,A,small,EX,O,15,E04,58.990234375
2,1,1,23493,1.578125,0.14453125,3,1,9,42,5,948.259155273438,617.967895507812,0,1,objects,small,0,1,objects,A,small,EX,O,15,E04,58.990234375
0,1,0,23495,1.953125,0.404296875,4,1,10,52,7,1089.23425292969,697.114074707031,0,1,objects,small,0,1,objects,A,small,EX,O,15,E04,58.990234375
0,1,0,23496,2.3984375,0.138671875,5,0,14,62,8,1130.55700683594,799.775939941406,0,1,objects,big,0,1,objects,A,small,EX,O,15,E04,58.990234375
0,1,0,23500,3.09375,0.201171875,6,0,11,53,12,1088.94519042969,804.28271484375,0,1,faces,male,0,1,objects,A,small,EX,O,15,E04,58.990234375
0,1,1,23501,3.326171875,0.205078125,7,0,7,27,13,731.659240722656,915.546325683594,0,1,faces,female,0,1,objects,A,small,EX,O,15,E04,58.990234375
0,1,0,23504,3.814453125,0.19921875,8,0,5,18,16,683.210693359375,917.975769042969,0,1,faces,female,0,1,objects,A,small,EX,O,15,E04,58.990234375
0,1,1,23524,0.587890625,0.1015625,1,1,11,60,4,1163.97448730469,590.231201171875,0,1,faces,female,1,0,faces,P,female,VS,F,16,E04,63.189453125
0,1,0,23526,0.822265625,0.271484375,2,1,12,61,6,1182.373046875,726.766784667969,0,1,faces,male,1,0,faces,P,female,VS,F,16,E04,63.189453125
0,0,0,23527,1.134765625,0.2578125,3,1,13,68,7,1302.11450195312,521.356018066406,1,0,NaN,NaN,1,0,faces,P,female,VS,F,16,E04,63.189453125
0,0,0,23530,1.8125,0.138671875,4,1,8,35,10,861.989562988281,851.741821289062,0,1,faces,female,1,0,faces,P,female,VS,F,16,E04,63.189453125
0,0,1,23531,1.984375,0.294921875,5,0,7,27,11,796.809631347656,939.346984863281,0,1,faces,male,1,0,faces,P,female,VS,F,16,E04,63.189453125
1,0,1,23534,2.84375,0.1015625,6,0,2,7,14,529.611389160156,721.350341796875,0,1,faces,male,1,0,faces,P,female,VS,F,16,E04,63.189453125
2,0,1,23536,3.015625,0.158203125,7,0,2,7,16,548.897705078125,703.395874023438,0,1,faces,male,1,0,faces,P,female,VS,F,16,E04,63.189453125
1,1,0,23558,0.20703125,0.212890625,1,1,8,50,2,1015.41436767578,539.489318847656,0,1,faces,female,0,1,faces,A,female,VS,F,17,E04,67.388671875
1,1,1,23559,0.45703125,0.109375,2,1,5,32,3,859.095153808594,506.6455078125,0,1,faces,male,0,1,faces,A,female,VS,F,17,E04,67.388671875
2,1,1,23565,1.509765625,0.1640625,3,1,8,50,9,1085.52856445312,503.090728759766,0,1,faces,female,0,1,faces,A,female,VS,F,17,E04,67.388671875
0,1,1,23568,1.884765625,0.1484375,4,1,15,81,12,1343.75,923.301513671875,0,1,faces,female,0,1,faces,A,female,VS,F,17,E04,67.388671875
0,1,0,23570,2.330078125,0.248046875,5,0,12,73,14,1382.11303710938,175.875854492188,0,1,objects,big,0,1,faces,A,female,VS,F,17,E04,67.388671875
0,1,1,23574,2.96875,0.13671875,6,0,14,76,18,1402.43273925781,435.683135986328,0,1,faces,female,0,1,faces,A,female,VS,F,17,E04,67.388671875
2,1,0,23576,3.3515625,0.208984375,7,0,5,32,20,890.591064453125,494.904724121094,0,1,faces,male,0,1,faces,A,female,VS,F,17,E04,67.388671875
0,1,0,23607,0.9765625,0.12109375,1,1,9,41,6,1002.24359130859,497.152587890625,0,1,faces,male,0,1,faces,P,female,VS,F,18,E04,71.587890625
0,1,0,23616,2.73046875,0.115234375,2,1,15,74,15,1336.17529296875,214.615600585938,0,1,faces,male,0,1,faces,P,female,VS,F,18,E04,71.587890625
0,1,1,23619,3.4296875,0.109375,3,1,1,13,18,643.76123046875,442.973663330078,0,1,objects,small,0,1,faces,P,female,VS,F,18,E04,71.587890625
0,1,1,23647,0.740234375,0.13671875,1,1,10,52,6,1042.43103027344,726.810913085938,0,1,faces,male,1,1,faces,P,female,VS,F,19,E04,75.787109375
0,1,0,23648,0.90234375,0.19921875,2,1,12,70,7,1282.40490722656,752.164367675781,0,1,faces,female,1,1,faces,P,female,VS,F,19,E04,75.787109375
0,1,1,23649,1.17578125,0.212890625,3,1,13,73,8,1330.41467285156,168.080703735352,0,1,objects,small,1,1,faces,P,female,VS,F,19,E04,75.787109375
0,1,0,23651,1.560546875,0.177734375,4,1,11,65,10,1282.91235351562,204.604782104492,0,1,faces,male,1,1,faces,P,female,VS,F,19,E04,75.787109375
0,1,0,23652,1.794921875,0.189453125,5,0,14,74,11,1397.69775390625,199.146347045898,0,1,faces,female,1,1,faces,P,female,VS,F,19,E04,75.787109375
0,1,0,23653,2.04296875,0.240234375,6,0,4,31,12,860.929016113281,465.218811035156,0,1,objects,small,1,1,faces,P,female,VS,F,19,E04,75.787109375
0,1,0,23654,2.298828125,0.12890625,7,0,5,32,13,853.641296386719,522.527282714844,0,1,faces,male,1,1,faces,P,female,VS,F,19,E04,75.787109375
0,1,0,23656,2.640625,0.234375,8,0,15,77,15,1407.45642089844,537.532104492188,0,1,faces,male,1,1,faces,P,female,VS,F,19,E04,75.787109375
1,1,0,23657,2.92578125,0.150390625,9,0,8,46,16,1090.58703613281,112.065528869629,1,0,NaN,NaN,1,1,faces,P,female,VS,F,19,E04,75.787109375
2,1,0,23660,3.43359375,0.130859375,10,0,8,46,19,1057.80297851562,93.9042892456055,1,0,NaN,NaN,1,1,faces,P,female,VS,F,19,E04,75.787109375
1,1,1,23678,0.498046875,0.125,1,1,9,26,3,744.927795410156,844.165283203125,0,1,faces,female,0,1,faces,A,male,VS,F,20,E04,79.986328125
0,1,0,23679,0.65234375,0.544921875,2,1,10,27,4,756.732666015625,917.66552734375,0,1,faces,male,0,1,faces,A,male,VS,F,20,E04,79.986328125
2,1,1,23680,1.21875,0.19921875,3,1,9,26,5,784.39501953125,821.738647460938,0,1,faces,female,0,1,faces,A,male,VS,F,20,E04,79.986328125
0,1,0,23685,1.876953125,0.341796875,4,1,11,30,10,852.768310546875,305.773162841797,0,1,objects,big,0,1,faces,A,male,VS,F,20,E04,79.986328125
0,1,0,23686,2.259765625,0.279296875,5,0,2,2,11,510.875396728516,280.22900390625,0,1,faces,male,0,1,faces,A,male,VS,F,20,E04,79.986328125
0,1,0,23687,2.611328125,0.494140625,6,0,1,1,12,523.900207519531,145.049224853516,0,1,objects,small,0,1,faces,A,male,VS,F,20,E04,79.986328125
0,1,0,23691,3.865234375,0.140625,7,0,15,67,16,1270.18786621094,426.235595703125,0,1,faces,male,0,1,faces,A,male,VS,F,20,E04,79.986328125
1,1,0,23711,0.455078125,0.20703125,1,1,6,29,5,877.352355957031,286.981597900391,0,1,faces,male,1,1,objects,P,small,VS,O,21,E04,84.185546875
0,0,0,23714,0.884765625,0.357421875,2,1,11,48,8,1090.60534667969,301.268371582031,1,0,NaN,NaN,1,1,objects,P,small,VS,O,21,E04,84.185546875
0,0,1,23716,1.54296875,0.154296875,3,1,5,28,10,883.181091308594,129.40901184082,0,1,objects,small,1,1,objects,P,small,VS,O,21,E04,84.185546875
2,0,0,23718,1.79296875,0.205078125,4,1,6,29,12,875.095520019531,194.565139770508,0,1,faces,male,1,1,objects,P,small,VS,O,21,E04,84.185546875
0,0,0,23719,2.01953125,0.25,5,0,7,30,13,898.064025878906,326.058624267578,0,1,faces,female,1,1,objects,P,small,VS,O,21,E04,84.185546875
0,0,1,23721,2.4375,0.1015625,6,0,3,24,15,756.059326171875,666.6123046875,0,1,faces,male,1,1,objects,P,small,VS,O,21,E04,84.185546875
1,1,0,23741,0.248046875,0.31640625,1,1,13,49,3,1049.75573730469,439.266387939453,0,1,faces,male,0,1,objects,A,big,EX,O,22,E04,88.384765625
0,1,0,23745,1.125,0.3203125,2,1,5,17,7,671.064331054688,801.440246582031,0,1,objects,small,0,1,objects,A,big,EX,O,22,E04,88.384765625
2,1,1,23746,1.5,0.119140625,3,1,13,49,8,1094.81433105469,478.940826416016,0,1,faces,male,0,1,objects,A,big,EX,O,22,E04,88.384765625
0,1,1,23750,2.130859375,0.177734375,4,1,12,48,12,1068.06359863281,291.645843505859,0,1,faces,female,0,1,objects,A,big,EX,O,22,E04,88.384765625
0,1,0,23752,2.478515625,0.146484375,5,0,7,30,14,898.821960449219,356.398345947266,0,1,faces,male,0,1,objects,A,big,EX,O,22,E04,88.384765625
1,1,0,23783,0.23046875,0.12890625,1,1,9,35,2,842.722229003906,875.693969726562,0,1,faces,female,1,1,faces,P,female,VS,I,23,E04,92.583984375
0,1,0,23784,0.419921875,0.115234375,2,1,6,27,3,750.180358886719,903.35986328125,0,1,objects,small,1,1,faces,P,female,VS,I,23,E04,92.583984375
2,1,0,23786,0.630859375,0.185546875,3,1,9,35,5,863.210388183594,799.786010742188,0,1,faces,female,1,1,faces,P,female,VS,I,23,E04,92.583984375
0,1,0,23788,1.12109375,0.16015625,4,1,14,55,7,1114.27075195312,184.09831237793,1,0,NaN,NaN,1,1,faces,P,female,VS,I,23,E04,92.583984375
0,1,1,23793,3.400390625,0.1875,5,0,1,4,12,562.170837402344,391.895843505859,0,1,faces,female,1,1,faces,P,female,VS,I,23,E04,92.583984375
0,1,1,23816,0.349609375,0.18359375,1,1,12,76,2,1398.76611328125,447.366607666016,0,1,faces,female,0,1,faces,A,female,EX,I,24,E04,96.783203125
0,1,0,23818,2.029296875,0.171875,2,1,8,46,4,1079.26379394531,160.268432617188,0,1,faces,female,0,1,faces,A,female,EX,I,24,E04,96.783203125
0,1,0,23840,0.548828125,0.16796875,1,1,7,52,3,1059.35852050781,778.901184082031,0,1,objects,big,1,1,faces,P,female,VS,F,25,E04,100.982421875
0,1,0,23842,0.84375,0.115234375,2,1,13,71,5,1258.19592285156,861.580688476562,0,1,faces,female,1,1,faces,P,female,VS,F,25,E04,100.982421875
0,1,1,23845,1.48828125,0.12890625,3,1,9,56,8,1156.943359375,211.196563720703,0,1,faces,male,1,1,faces,P,female,VS,F,25,E04,100.982421875
1,1,1,23852,2.37109375,0.12109375,4,1,2,6,15,527.083679199219,638.839965820312,1,0,NaN,NaN,1,1,faces,P,female,VS,F,25,E04,100.982421875
2,1,1,23854,2.71484375,0.19921875,5,0,2,6,17,556.29638671875,629.532165527344,1,0,NaN,NaN,1,1,faces,P,female,VS,F,25,E04,100.982421875
3,1,1,23859,3.689453125,0.125,6,0,2,6,22,573.403869628906,677.987915039062,1,0,NaN,NaN,1,1,faces,P,female,VS,F,25,E04,100.982421875
0,1,0,23891,0.32421875,0.1875,1,1,6,39,3,919.307922363281,318.948638916016,0,1,faces,female,0,0,faces,P,female,VS,F,26,E04,105.181640625
0,1,0,23893,0.822265625,0.115234375,2,1,15,80,5,1392.9560546875,801.174194335938,0,1,faces,male,0,0,faces,P,female,VS,F,26,E04,105.181640625
0,1,1,23898,1.548828125,0.1953125,3,1,9,56,10,1202.23901367188,201.422973632812,0,1,faces,female,0,0,faces,P,female,VS,F,26,E04,105.181640625
0,1,0,23947,2.5625,0.154296875,1,1,10,38,8,960.814086914062,200.638076782227,0,1,faces,female,0,1,objects,A,big,VS,O,33,E04,134.576171875
0,1,0,23948,2.775390625,0.1171875,2,1,3,14,9,666.196838378906,525.17822265625,0,1,faces,female,0,1,objects,A,big,VS,O,33,E04,134.576171875
0,1,0,23975,0.970703125,0.19140625,1,1,13,63,6,1201.83215332031,973.45751953125,0,1,faces,male,0,1,faces,A,female,VS,F,34,E04,138.775390625
0,1,1,23977,1.552734375,0.12890625,2,1,7,23,8,759.550231933594,549.257141113281,0,1,faces,male,0,1,faces,A,female,VS,F,34,E04,138.775390625
0,1,0,23985,2.556640625,0.138671875,3,1,10,55,16,1159.87890625,125.200508117676,0,1,faces,female,0,1,faces,A,female,VS,F,34,E04,138.775390625
0,1,0,23986,2.77734375,0.1796875,4,1,1,3,17,528.901062011719,303.802551269531,0,1,faces,male,0,1,faces,A,female,VS,F,34,E04,138.775390625
0,1,0,24016,0.59375,0.107421875,1,1,6,16,3,663.893981933594,782.739990234375,0,1,faces,female,0,1,objects,A,small,VS,O,35,E04,142.974609375
0,1,1,24018,1.185546875,0.16015625,2,1,15,74,5,1385.392578125,288.837005615234,0,1,faces,female,0,1,objects,A,small,VS,O,35,E04,142.974609375
0,1,0,24020,1.525390625,0.171875,3,1,10,38,7,1001.50115966797,238.730239868164,0,1,objects,small,0,1,objects,A,small,VS,O,35,E04,142.974609375
0,1,0,24054,3.1875,0.166015625,1,1,9,47,1,1033.75415039062,258.730804443359,0,1,objects,big,0,1,objects,A,small,EX,O,37,E04,151.373046875
0,1,0,24055,3.400390625,0.20703125,2,1,8,38,2,967.830993652344,238.624816894531,0,1,faces,female,0,1,objects,A,small,EX,O,37,E04,151.373046875
0,1,0,24084,1.50390625,0.16796875,1,1,14,58,9,1206.64953613281,408.007598876953,0,1,faces,female,0,1,faces,A,female,EX,F,38,E04,155.572265625
0,1,0,24088,2.140625,0.12109375,2,1,2,2,13,604.289367675781,258.046691894531,0,1,faces,female,0,1,faces,A,female,EX,F,38,E04,155.572265625
0,1,0,24089,2.76953125,0.345703125,3,1,6,28,14,836.94775390625,95.6534805297852,0,1,faces,female,0,1,faces,A,female,EX,F,38,E04,155.572265625
0,1,1,24115,1.505859375,0.1484375,1,1,8,47,1,1096.5107421875,208.685562133789,0,1,faces,female,0,1,faces,P,female,VS,I,39,E04,159.771484375
0,1,1,24152,0.955078125,0.126953125,1,1,4,25,6,769.103149414062,782.680725097656,0,1,faces,male,0,1,objects,A,big,EX,O,40,E04,163.970703125
0,1,0,24154,1.77734375,0.154296875,2,1,8,40,8,977.546203613281,406.689086914062,0,1,objects,big,0,1,objects,A,big,EX,O,40,E04,163.970703125
0,1,1,24157,2.29296875,0.111328125,3,1,12,55,11,1195.36413574219,159.987487792969,0,1,faces,female,0,1,objects,A,big,EX,O,40,E04,163.970703125
0,1,1,24159,2.689453125,0.13671875,4,1,1,2,13,536.223388671875,226.498016357422,0,1,objects,small,0,1,objects,A,big,EX,O,40,E04,163.970703125
0,1,1,24168,3.849609375,0.1484375,5,0,14,69,22,1297.60974121094,673.948669433594,0,1,faces,female,0,1,objects,A,big,EX,O,40,E04,163.970703125
0,1,0,24172,0.18359375,0.1953125,1,1,8,34,1,824.472045898438,750.542114257812,0,1,faces,female,1,1,faces,P,female,VS,F,41,E04,168.169921875
0,1,0,24173,0.408203125,0.166015625,2,1,11,53,2,1023.64422607422,810.3642578125,0,1,faces,male,1,1,faces,P,female,VS,F,41,E04,168.169921875
1,0,0,24174,0.623046875,0.712890625,3,1,13,60,3,1133.908203125,637.951782226562,1,0,NaN,NaN,1,1,faces,P,female,VS,F,41,E04,168.169921875
0,0,0,24175,1.353515625,0.150390625,4,1,12,59,4,1144.13537597656,567.9814453125,0,1,faces,male,1,1,faces,P,female,VS,F,41,E04,168.169921875
0,0,1,24176,1.546875,0.16015625,5,0,3,11,5,693.253356933594,239.548858642578,0,1,objects,big,1,1,faces,P,female,VS,F,41,E04,168.169921875
2,0,0,24179,2.158203125,0.134765625,6,0,13,60,8,1186.61791992188,641.942321777344,1,0,NaN,NaN,1,1,faces,P,female,VS,F,41,E04,168.169921875
3,0,0,24181,2.4296875,0.798828125,7,0,13,60,10,1162.67944335938,651.77978515625,1,0,NaN,NaN,1,1,faces,P,female,VS,F,41,E04,168.169921875
0,0,0,24182,3.271484375,0.1875,8,0,4,17,11,627.597595214844,834.764343261719,0,1,faces,female,1,1,faces,P,female,VS,F,41,E04,168.169921875
0,0,1,24183,3.4765625,0.232421875,9,0,2,8,12,567.82177734375,841.200256347656,0,1,objects,small,1,1,faces,P,female,VS,F,41,E04,168.169921875
0,1,0,24191,0.478515625,0.328125,1,1,7,35,2,826.250183105469,886.243774414062,0,1,faces,female,1,0,faces,P,female,VS,I,42,E04,172.369140625
0,1,0,24194,1.126953125,0.1640625,2,1,11,57,5,1153.98645019531,362.267669677734,0,1,faces,male,1,0,faces,P,female,VS,I,42,E04,172.369140625
0,1,0,24195,1.322265625,0.49609375,3,1,13,74,6,1356.55639648438,253.89892578125,0,1,faces,female,1,0,faces,P,female,VS,I,42,E04,172.369140625
0,1,0,24196,1.8359375,0.12890625,4,1,12,73,7,1342.962890625,183.923095703125,0,1,faces,male,1,0,faces,P,female,VS,I,42,E04,172.369140625
1,0,0,24198,2.146484375,0.490234375,5,0,5,22,9,731.925476074219,461.858520507812,1,0,NaN,NaN,1,0,faces,P,female,VS,I,42,E04,172.369140625
2,0,0,24200,2.986328125,0.58984375,6,0,5,22,11,717.804077148438,465.191802978516,1,0,NaN,NaN,1,0,faces,P,female,VS,I,42,E04,172.369140625
0,0,0,24201,3.6328125,0.328125,7,0,15,80,12,1367.05249023438,790.92041015625,0,1,objects,small,1,0,faces,P,female,VS,I,42,E04,172.369140625
0,1,0,24215,0.244140625,0.173828125,1,1,4,22,2,723.419860839844,490.282165527344,0,1,faces,male,0,0,faces,P,female,VS,F,43,E04,176.568359375
0,1,0,24216,0.466796875,0.15625,2,1,1,12,3,636.649536132812,385.387115478516,0,1,faces,female,0,0,faces,P,female,VS,F,43,E04,176.568359375
0,1,0,24217,0.658203125,0.18359375,3,1,8,47,4,1023.95056152344,247.678726196289,0,1,faces,male,0,0,faces,P,female,VS,F,43,E04,176.568359375
0,1,1,24218,0.861328125,0.1640625,4,1,9,56,5,1121.33251953125,264.542907714844,0,1,faces,female,0,0,faces,P,female,VS,F,43,E04,176.568359375
1,1,0,24220,1.29296875,0.15625,5,0,15,74,7,1324.17602539062,257.340270996094,0,1,faces,female,0,0,faces,P,female,VS,F,43,E04,176.568359375
0,1,0,24221,1.46875,0.365234375,6,0,12,66,8,1260.88732910156,361.396545410156,0,1,faces,female,0,0,faces,P,female,VS,F,43,E04,176.568359375
0,1,0,24225,2.509765625,0.265625,7,0,3,16,12,620.967224121094,768.788818359375,0,1,objects,big,0,0,faces,P,female,VS,F,43,E04,176.568359375
0,1,1,24226,2.802734375,0.13671875,8,0,5,27,13,747.556579589844,988.207946777344,0,1,faces,male,0,0,faces,P,female,VS,F,43,E04,176.568359375
2,1,0,24230,3.515625,0.19140625,9,0,15,74,17,1373.146484375,262.362762451172,0,1,faces,female,0,0,faces,P,female,VS,F,43,E04,176.568359375
0,1,0,24231,3.73828125,0.251953125,10,0,11,64,18,1253.16088867188,150.128616333008,0,1,objects,big,0,0,faces,P,female,VS,F,43,E04,176.568359375
1,1,0,24244,1.90625,0.283203125,1,1,12,72,8,1211.85583496094,960.474975585938,0,1,objects,small,0,1,objects,P,big,VS,O,44,E04,180.767578125
0,1,1,24247,2.62109375,0.142578125,2,1,14,75,11,1388.95373535156,373.362060546875,0,1,faces,male,0,1,objects,P,big,VS,O,44,E04,180.767578125
2,1,0,24250,3.134765625,0.37890625,3,1,12,72,14,1288.70361328125,961.3779296875,0,1,objects,small,0,1,objects,P,big,VS,O,44,E04,180.767578125
0,1,0,24252,3.70703125,0.166015625,4,1,3,9,16,527.174865722656,955.356628417969,0,1,objects,big,0,1,objects,P,big,VS,O,44,E04,180.767578125
0,1,0,24281,0.21875,0.119140625,1,1,2,23,2,726.317260742188,542.967224121094,0,1,faces,male,0,1,faces,A,male,EX,F,45,E04,184.966796875
1,1,1,24282,0.431640625,0.154296875,2,1,10,58,3,1167.86584472656,459.658142089844,0,1,objects,small,0,1,faces,A,male,EX,F,45,E04,184.966796875
0,1,0,24285,0.94921875,0.11328125,3,1,3,24,6,808.449645996094,637.365173339844,0,1,faces,female,0,1,faces,A,male,EX,F,45,E04,184.966796875
2,1,1,24288,1.400390625,0.10546875,4,1,10,58,9,1195.93469238281,417.397583007812,0,1,objects,small,0,1,faces,A,male,EX,F,45,E04,184.966796875
0,1,1,24291,1.849609375,0.189453125,5,0,9,55,12,1168.48168945312,166.922866821289,0,1,objects,big,0,1,faces,A,male,EX,F,45,E04,184.966796875
3,1,0,24293,2.205078125,0.126953125,6,0,10,58,14,1195.97900390625,403.161926269531,0,1,objects,small,0,1,faces,A,male,EX,F,45,E04,184.966796875
0,1,1,24295,2.623046875,0.1640625,7,0,15,75,16,1402.82495117188,359.389495849609,0,1,faces,female,0,1,faces,A,male,EX,F,45,E04,184.966796875
0,1,1,24297,2.994140625,0.162109375,8,0,12,61,18,1133.07666015625,698.190063476562,0,1,faces,male,0,1,faces,A,male,EX,F,45,E04,184.966796875
0,1,0,24299,3.435546875,0.1875,9,0,11,60,20,1190.90368652344,643.262084960938,0,1,objects,small,0,1,faces,A,male,EX,F,45,E04,184.966796875
0,1,1,24300,3.6640625,0.171875,10,0,6,45,21,920.288024902344,935.497863769531,0,1,faces,male,0,1,faces,A,male,EX,F,45,E04,184.966796875
0,1,1,24332,0.392578125,0.125,1,1,9,37,2,958.329162597656,180.44206237793,1,0,NaN,NaN,1,1,objects,P,big,VS,O,46,E04,189.166015625
0,0,0,24336,1.560546875,0.220703125,2,1,6,26,6,746.7529296875,879.378173828125,0,1,objects,big,1,1,objects,P,big,VS,O,46,E04,189.166015625
0,0,0,24339,2.3828125,0.1171875,3,1,15,81,9,1403.11108398438,915.892944335938,0,1,objects,small,1,1,objects,P,big,VS,O,46,E04,189.166015625
0,0,0,24344,3.56640625,0.171875,4,1,5,22,14,717.974060058594,390.759796142578,0,1,faces,female,1,1,objects,P,big,VS,O,46,E04,189.166015625
0,1,0,24362,3.4921875,0.1484375,1,1,11,56,1,1132.92504882812,215.579208374023,0,1,faces,female,0,1,faces,A,male,EX,I,47,E04,193.365234375
0,1,0,24364,3.8125,0.201171875,2,1,12,64,3,1219.25390625,90.614990234375,0,1,faces,female,0,1,faces,A,male,EX,I,47,E04,193.365234375
1,1,1,24375,0.353515625,0.251953125,1,1,4,24,2,718.948913574219,666.52734375,0,1,faces,male,0,0,faces,P,male,VS,I,48,E04,197.564453125
1,1,1,24376,0.642578125,0.1328125,2,1,12,60,3,1118.25598144531,607.054626464844,0,1,faces,female,0,0,faces,P,male,VS,I,48,E04,197.564453125
2,1,1,24378,0.92578125,0.12890625,3,1,4,24,5,787.819458007812,688.681640625,0,1,faces,male,0,0,faces,P,male,VS,I,48,E04,197.564453125
0,1,0,24380,1.927734375,0.255859375,4,1,6,36,7,861.17919921875,973.580444335938,0,1,objects,big,0,0,faces,P,male,VS,I,48,E04,197.564453125
0,1,0,24381,2.21875,0.251953125,5,0,13,71,8,1310.01049804688,872.484497070312,0,1,faces,male,0,0,faces,P,male,VS,I,48,E04,197.564453125
0,1,0,24382,2.4921875,0.15625,6,0,15,80,9,1395.58325195312,865.262878417969,0,1,faces,male,0,0,faces,P,male,VS,I,48,E04,197.564453125
2,1,1,24383,2.6953125,0.369140625,7,0,12,60,10,1186.66162109375,654.757629394531,0,1,faces,female,0,0,faces,P,male,VS,I,48,E04,197.564453125
0,1,0,24385,3.4296875,0.298828125,8,0,10,57,12,1179.43029785156,382.970397949219,0,1,faces,female,0,0,faces,P,male,VS,I,48,E04,197.564453125
1,1,0,24403,0.474609375,0.208984375,1,1,6,24,2,733.582885742188,603.278503417969,0,1,faces,male,1,0,faces,P,male,VS,F,49,E04,201.763671875
2,1,0,24405,1.0078125,0.26171875,2,1,6,24,4,741.170715332031,634.765014648438,0,1,faces,male,1,0,faces,P,male,VS,F,49,E04,201.763671875
0,1,1,24406,1.306640625,0.126953125,3,1,7,26,5,730.332580566406,856.576721191406,0,1,faces,female,1,0,faces,P,male,VS,F,49,E04,201.763671875
0,1,0,24408,1.673828125,0.18359375,4,1,4,17,7,630.503295898438,822.757629394531,0,1,faces,female,1,0,faces,P,male,VS,F,49,E04,201.763671875
1,1,0,24409,1.912109375,0.162109375,5,0,10,59,8,1190.14270019531,583.227416992188,1,0,NaN,NaN,1,0,faces,P,male,VS,F,49,E04,201.763671875
1,1,0,24410,2.08984375,0.1328125,6,0,11,60,9,1153.2548828125,618.414428710938,0,1,faces,female,1,0,faces,P,male,VS,F,49,E04,201.763671875
2,0,0,24411,2.2421875,0.23828125,7,0,10,59,10,1153.47705078125,525.9365234375,1,0,NaN,NaN,1,0,faces,P,male,VS,F,49,E04,201.763671875
2,0,1,24412,2.5,0.146484375,8,0,11,60,11,1163.48315429688,640.425476074219,0,1,faces,female,1,0,faces,P,male,VS,F,49,E04,201.763671875
0,0,1,24415,3.05859375,0.107421875,9,0,15,76,14,1357.72631835938,476.828277587891,0,1,objects,big,1,0,faces,P,male,VS,F,49,E04,201.763671875
0,0,1,24417,3.396484375,0.3515625,10,0,14,75,16,1364.64135742188,319.71337890625,0,1,faces,male,1,0,faces,P,male,VS,F,49,E04,201.763671875
0,1,0,24424,1.087890625,0.189453125,1,1,6,25,1,763.718017578125,750.697326660156,0,1,faces,male,1,0,objects,P,small,VS,O,50,E04,205.962890625
0,1,0,24425,1.31640625,0.146484375,2,1,2,9,2,548.432800292969,935.305725097656,0,1,objects,small,1,0,objects,P,small,VS,O,50,E04,205.962890625
0,1,1,24427,1.701171875,0.1171875,3,1,5,19,4,760.925659179688,154.651901245117,1,0,NaN,NaN,1,0,objects,P,small,VS,O,50,E04,205.962890625
0,0,0,24431,3.544921875,0.28125,4,1,3,11,8,647.001342773438,202.5810546875,0,1,faces,female,1,0,objects,P,small,VS,O,50,E04,205.962890625
0,1,1,24439,0.751953125,0.189453125,1,1,4,34,1,850.719970703125,757.111389160156,0,1,faces,female,0,0,faces,A,female,EX,F,51,E04,210.162109375
1,1,0,24441,1.189453125,0.126953125,2,1,10,54,3,1026.20031738281,906.17578125,0,1,faces,female,0,0,faces,A,female,EX,F,51,E04,210.162109375
1,1,0,24442,1.326171875,0.154296875,3,1,8,45,4,996.751586914062,891.831787109375,0,1,objects,big,0,0,faces,A,female,EX,F,51,E04,210.162109375
2,1,1,24443,1.501953125,0.134765625,4,1,10,54,5,1051.26843261719,959.825073242188,0,1,faces,female,0,0,faces,A,female,EX,F,51,E04,210.162109375
2,1,0,24447,2.173828125,0.515625,5,0,8,45,9,993.369812011719,979.681213378906,0,1,objects,big,0,0,faces,A,female,EX,F,51,E04,210.162109375
0,1,0,24449,2.880859375,0.232421875,6,0,11,59,11,1177.27624511719,533.369995117188,0,1,faces,female,0,0,faces,A,female,EX,F,51,E04,210.162109375
0,1,0,24451,3.2578125,0.275390625,7,0,9,48,13,1070.76733398438,330.313995361328,0,1,faces,female,0,0,faces,A,female,EX,F,51,E04,210.162109375
0,1,0,24452,3.568359375,0.1875,8,0,14,75,14,1345.32629394531,320.407135009766,0,1,faces,male,0,0,faces,A,female,EX,F,51,E04,210.162109375
1,1,0,24463,0.197265625,0.203125,1,1,4,23,1,746.374572753906,570.427978515625,0,1,faces,male,1,0,faces,P,female,VS,I,52,E04,214.361328125
1,1,0,24464,0.41796875,0.109375,2,1,5,24,2,744.729125976562,653.829956054688,0,1,faces,male,1,0,faces,P,female,VS,I,52,E04,214.361328125
2,1,0,24465,0.55859375,0.1875,3,1,4,23,3,754.673767089844,505.563354492188,0,1,faces,male,1,0,faces,P,female,VS,I,52,E04,214.361328125
0,1,1,24466,0.8046875,0.126953125,4,1,3,17,4,652.4306640625,886.22216796875,0,1,faces,female,1,0,faces,P,female,VS,I,52,E04,214.361328125
0,1,0,24469,1.287109375,0.23046875,5,0,13,69,7,1260.2646484375,655.443237304688,0,1,faces,male,1,0,faces,P,female,VS,I,52,E04,214.361328125
0,1,0,24470,1.55078125,0.181640625,6,0,12,62,8,1186.92443847656,838.590698242188,0,1,faces,male,1,0,faces,P,female,VS,I,52,E04,214.361328125
0,1,1,24471,1.77734375,0.171875,7,0,9,49,9,1097.05261230469,459.567901611328,0,1,faces,female,1,0,faces,P,female,VS,I,52,E04,214.361328125
1,0,0,24473,2.23828125,0.2734375,8,0,10,57,11,1165.13012695312,353.542205810547,1,0,NaN,NaN,1,0,faces,P,female,VS,I,52,E04,214.361328125
0,0,0,24474,2.55078125,0.173828125,9,0,8,37,12,957.074279785156,126.068885803223,0,1,objects,big,1,0,faces,P,female,VS,I,52,E04,214.361328125
2,0,0,24475,2.76171875,0.240234375,10,0,10,57,13,1153.376953125,352.108032226562,1,0,NaN,NaN,1,0,faces,P,female,VS,I,52,E04,214.361328125
2,0,1,24476,3.0625,0.158203125,11,0,5,24,14,809.168212890625,687.758239746094,0,1,faces,male,1,0,faces,P,female,VS,I,52,E04,214.361328125
3,0,1,24478,3.373046875,0.1328125,12,0,10,57,16,1193.37976074219,360.212280273438,1,0,NaN,NaN,1,0,faces,P,female,VS,I,52,E04,214.361328125
0,1,1,24484,0.248046875,0.15625,1,1,7,48,1,1100.24291992188,386.222686767578,0,1,objects,big,0,0,objects,A,small,VS,O,53,E04,218.560546875
0,1,1,24486,0.560546875,0.12890625,2,1,3,15,3,669.608093261719,682.588500976562,0,1,objects,big,0,0,objects,A,small,VS,O,53,E04,218.560546875
0,1,1,24489,1.0546875,0.12109375,3,1,8,52,6,1076.58203125,782.351135253906,0,1,objects,small,0,0,objects,A,small,VS,O,53,E04,218.560546875
0,1,0,24494,1.939453125,0.251953125,4,1,6,47,11,1012.59399414062,263.717437744141,0,1,faces,female,0,0,objects,A,small,VS,O,53,E04,218.560546875
0,1,0,24495,2.21484375,0.21875,5,0,10,58,12,1122.70202636719,424.899261474609,0,1,objects,small,0,0,objects,A,small,VS,O,53,E04,218.560546875
1,1,0,24496,2.462890625,0.1484375,6,0,9,57,13,1130.15344238281,311.813049316406,0,1,faces,male,0,0,objects,A,small,VS,O,53,E04,218.560546875
0,1,0,24498,2.8203125,0.107421875,7,0,11,63,15,1182.26843261719,962.624938964844,0,1,faces,female,0,0,objects,A,small,VS,O,53,E04,218.560546875
0,1,0,24499,2.955078125,0.11328125,8,0,15,81,16,1400.56359863281,932.265563964844,0,1,faces,female,0,0,objects,A,small,VS,O,53,E04,218.560546875
0,1,0,24503,3.73046875,0.166015625,9,0,12,65,20,1212.23901367188,240.168731689453,0,1,faces,male,0,0,objects,A,small,VS,O,53,E04,218.560546875
2,1,0,24504,3.91796875,0.150390625,10,0,9,57,21,1182.2705078125,344.543518066406,0,1,faces,male,0,0,objects,A,small,VS,O,53,E04,218.560546875
0,0,0,24514,0.72265625,1.009765625,1,1,6,22,4,721.707885742188,396.249938964844,1,0,NaN,NaN,1,0,faces,P,female,VS,F,54,E04,222.759765625
0,0,0,24516,1.943359375,0.267578125,2,1,14,70,6,1299.17895507812,718.979187011719,0,1,faces,female,1,0,faces,P,female,VS,F,54,E04,222.759765625
0,0,1,24517,2.26171875,0.134765625,3,1,10,48,7,1023.92913818359,380.308715820312,0,1,objects,big,1,0,faces,P,female,VS,F,54,E04,222.759765625
0,0,1,24522,3.181640625,0.189453125,4,1,3,12,12,686.875061035156,374.380249023438,0,1,faces,male,1,0,faces,P,female,VS,F,54,E04,222.759765625
0,1,0,24558,0.880859375,0.263671875,1,1,9,57,2,1210.25708007812,323.817108154297,0,1,objects,big,0,0,faces,A,male,VS,F,58,E04,239.556640625
0,1,0,24559,1.17578125,0.166015625,2,1,10,58,3,1172.50231933594,432.141052246094,0,1,faces,female,0,0,faces,A,male,VS,F,58,E04,239.556640625
0,1,0,24560,1.3828125,0.25390625,3,1,12,65,4,1245.04125976562,213.77473449707,0,1,faces,male,0,0,faces,A,male,VS,F,58,E04,239.556640625
0,1,0,24561,1.69921875,0.1015625,4,1,15,81,5,1333.13098144531,967.120483398438,0,1,objects,small,0,0,faces,A,male,VS,F,58,E04,239.556640625
0,1,0,24570,3.12890625,0.212890625,5,0,1,1,14,567.514465332031,157.002853393555,0,1,faces,male,0,0,faces,A,male,VS,F,58,E04,239.556640625
0,1,0,24593,0.44921875,0.162109375,1,1,3,23,3,709.847900390625,494.917877197266,0,1,objects,small,1,0,faces,P,male,VS,F,67,E04,277.349609375
1,0,0,24597,0.994140625,0.27734375,2,1,2,9,7,525.413879394531,938.210266113281,1,0,NaN,NaN,1,0,faces,P,male,VS,F,67,E04,277.349609375
2,0,1,24600,1.607421875,0.12890625,3,1,2,9,10,566.5693359375,937.485229492188,1,0,NaN,NaN,1,0,faces,P,male,VS,F,67,E04,277.349609375
0,0,0,24603,2.107421875,0.19140625,4,1,10,60,13,1167.20910644531,595.652465820312,0,1,objects,small,1,0,faces,P,male,VS,F,67,E04,277.349609375
0,0,0,24604,2.3203125,0.201171875,5,0,13,68,14,1264.25354003906,581.898315429688,0,1,faces,female,1,0,faces,P,male,VS,F,67,E04,277.349609375
1,0,1,24605,2.552734375,0.13671875,6,0,12,66,15,1243.02014160156,371.388946533203,0,1,faces,male,1,0,faces,P,male,VS,F,67,E04,277.349609375
0,0,0,24607,2.875,0.130859375,7,0,11,64,17,1230.01306152344,120.319160461426,0,1,faces,female,1,0,faces,P,male,VS,F,67,E04,277.349609375
2,0,1,24608,3.03515625,0.11328125,8,0,12,66,18,1225.13891601562,336.845031738281,0,1,faces,male,1,0,faces,P,male,VS,F,67,E04,277.349609375
0,0,1,24610,3.6015625,0.171875,9,0,9,54,20,1020.46740722656,889.718566894531,0,1,faces,male,1,0,faces,P,male,VS,F,67,E04,277.349609375
0,0,0,24612,3.935546875,0.12109375,10,0,4,25,22,734.87109375,767.474914550781,0,1,faces,female,1,0,faces,P,male,VS,F,67,E04,277.349609375
0,1,0,24632,0.791015625,0.21484375,1,1,2,14,4,704.141235351562,557.884765625,0,1,objects,big,0,0,faces,P,female,VS,I,68,E04,281.548828125
0,1,0,24649,1.05078125,0.1171875,1,1,13,59,5,1176.96643066406,510.717437744141,0,1,objects,big,0,0,faces,A,male,VS,I,69,E04,285.748046875
0,1,0,24654,1.734375,0.208984375,2,1,1,1,10,591.094909667969,108.237297058105,0,1,faces,male,0,0,faces,A,male,VS,I,69,E04,285.748046875
0,1,0,24661,3.041015625,0.26171875,3,1,8,31,17,811.192626953125,465.271911621094,0,1,objects,small,0,0,faces,A,male,VS,I,69,E04,285.748046875
0,1,0,24663,3.494140625,0.126953125,4,1,6,25,19,710.723449707031,700.38134765625,0,1,faces,male,0,0,faces,A,male,VS,I,69,E04,285.748046875
0,1,0,24665,3.873046875,0.123046875,5,0,3,11,21,686.891784667969,234.147216796875,0,1,faces,male,0,0,faces,A,male,VS,I,69,E04,285.748046875
0,1,0,24705,1.064453125,0.18359375,1,1,14,78,5,1389.41369628906,604.947204589844,0,1,faces,female,0,0,faces,A,male,EX,F,71,E04,294.146484375
0,1,0,24712,2.533203125,0.126953125,2,1,3,20,12,710.476501464844,219.685546875,0,1,faces,female,0,0,faces,A,male,EX,F,71,E04,294.146484375
1,1,1,24715,3.150390625,0.240234375,3,1,1,3,15,561.67919921875,302.064697265625,0,1,faces,female,0,0,faces,A,male,EX,F,71,E04,294.146484375
2,1,0,24719,3.8828125,0.20703125,4,1,1,3,19,509.671234130859,307.315399169922,0,1,faces,female,0,0,faces,A,male,EX,F,71,E04,294.146484375
0,1,0,24734,0.162109375,0.16796875,1,1,5,31,1,871.097106933594,450.901245117188,0,1,faces,female,0,0,faces,P,male,VS,I,72,E04,298.345703125
0,1,0,24736,0.599609375,0.169921875,2,1,1,8,3,563.558654785156,796.113708496094,0,1,objects,big,0,0,faces,P,male,VS,I,72,E04,298.345703125
0,1,0,24838,0.21875,0.32421875,1,1,8,40,1,1004.16271972656,431.616851806641,0,1,faces,male,1,1,objects,P,small,VS,O,73,E04,302.544921875
0,1,1,24840,0.828125,0.12890625,2,1,5,18,3,611.604614257812,958.336669921875,0,1,faces,male,1,1,objects,P,small,VS,O,73,E04,302.544921875
0,1,0,24842,1.126953125,0.185546875,3,1,4,15,5,664.263366699219,603.13427734375,0,1,objects,small,1,1,objects,P,small,VS,O,73,E04,302.544921875
0,1,0,24843,1.3515625,0.11328125,4,1,3,14,6,698.543212890625,575.202514648438,0,1,faces,female,1,1,objects,P,small,VS,O,73,E04,302.544921875
0,1,0,24845,1.76171875,0.205078125,5,0,9,41,8,956.978210449219,552.174194335938,0,1,faces,male,1,1,objects,P,small,VS,O,73,E04,302.544921875
0,1,0,24846,1.98828125,0.23046875,6,0,11,51,9,1054.34680175781,641.047668457031,0,1,faces,male,1,1,objects,P,small,VS,O,73,E04,302.544921875
0,1,0,24847,2.248046875,0.138671875,7,0,14,70,10,1260.0107421875,724.873657226562,0,1,objects,big,1,1,objects,P,small,VS,O,73,E04,302.544921875
0,0,1,24850,3.6328125,0.349609375,8,0,12,57,13,1180.04064941406,318.596282958984,1,0,NaN,NaN,1,1,objects,P,small,VS,O,73,E04,302.544921875
0,1,1,24867,0.71484375,0.134765625,1,1,5,30,4,847.814453125,379.05908203125,0,1,faces,male,0,1,objects,A,small,VS,O,74,E04,306.744140625
0,1,0,24868,0.890625,0.138671875,2,1,3,11,5,624.687683105469,236.617111206055,0,1,objects,small,0,1,objects,A,small,VS,O,74,E04,306.744140625
0,1,0,24876,2.16796875,0.15234375,3,1,8,34,13,847.331420898438,770.6181640625,0,1,faces,female,0,1,objects,A,small,VS,O,74,E04,306.744140625
0,1,0,24877,2.345703125,0.173828125,4,1,7,33,14,869.180053710938,676.132263183594,0,1,objects,big,0,1,objects,A,small,VS,O,74,E04,306.744140625
0,1,0,24902,1.88671875,0.14453125,1,1,12,67,9,1271.0791015625,449.073333740234,0,1,objects,big,0,1,objects,A,big,VS,O,75,E04,310.943359375
0,1,0,24904,2.224609375,0.130859375,2,1,10,53,11,1041.14172363281,821.550659179688,0,1,faces,female,0,1,objects,A,big,VS,O,75,E04,310.943359375
0,1,0,24905,2.380859375,0.205078125,3,1,7,34,12,909.838745117188,709.865112304688,0,1,faces,male,0,1,objects,A,big,VS,O,75,E04,310.943359375
0,1,0,24923,0.41015625,0.26953125,1,1,8,33,2,850.81396484375,689.383422851562,0,1,faces,female,1,0,faces,P,female,VS,F,76,E04,315.142578125
0,0,0,24924,0.697265625,0.28515625,2,1,9,34,3,847.486755371094,758.802124023438,1,0,NaN,NaN,1,0,faces,P,female,VS,F,76,E04,315.142578125
0,0,0,24925,1.0234375,0.283203125,3,1,7,27,4,758.045166015625,943.28466796875,0,1,faces,female,1,0,faces,P,female,VS,F,76,E04,315.142578125
0,0,0,24928,1.630859375,0.12890625,4,1,12,70,7,1286.35021972656,773.431518554688,0,1,faces,male,1,0,faces,P,female,VS,F,76,E04,315.142578125
0,0,0,24929,1.796875,0.220703125,5,0,15,77,8,1378.16064453125,554.302307128906,0,1,objects,small,1,0,faces,P,female,VS,F,76,E04,315.142578125
0,0,0,24930,2.04296875,0.251953125,6,0,14,76,9,1361.16796875,452.236328125,0,1,faces,male,1,0,faces,P,female,VS,F,76,E04,315.142578125
0,0,0,24931,2.33203125,0.1953125,7,0,13,73,10,1344.45300292969,137.180404663086,0,1,faces,male,1,0,faces,P,female,VS,F,76,E04,315.142578125
0,0,0,24932,2.642578125,0.130859375,8,0,3,10,11,665.136413574219,154.58056640625,0,1,faces,male,1,0,faces,P,female,VS,F,76,E04,315.142578125
0,0,0,24934,2.986328125,0.24609375,9,0,5,20,13,712.68115234375,205.407516479492,0,1,faces,female,1,0,faces,P,female,VS,F,76,E04,315.142578125
0,0,0,24935,3.259765625,0.140625,10,0,4,12,14,612.1513671875,324.173858642578,0,1,objects,small,1,0,faces,P,female,VS,F,76,E04,315.142578125
0,0,0,24937,3.5859375,0.19921875,11,0,2,5,16,512.818725585938,494.299133300781,0,1,faces,male,1,0,faces,P,female,VS,F,76,E04,315.142578125
0,1,0,24942,1.912109375,0.107421875,1,1,4,17,2,643.936584472656,789.831970214844,0,1,faces,male,0,1,faces,A,female,VS,I,77,E04,319.341796875
0,1,0,24944,2.384765625,0.181640625,2,1,9,62,4,1144.37780761719,871.474548339844,0,1,objects,small,0,1,faces,A,female,VS,I,77,E04,319.341796875
0,1,0,24947,3.076171875,0.18359375,3,1,11,66,7,1310.02722167969,371.530212402344,0,1,faces,male,0,1,faces,A,female,VS,I,77,E04,319.341796875
0,1,0,24978,0.552734375,0.146484375,1,1,12,58,3,1123.3203125,467.225738525391,0,1,faces,female,0,1,faces,A,female,EX,F,78,E04,323.541015625
1,1,1,24985,2.109375,0.109375,1,1,12,59,1,1162.03344726562,549.425964355469,0,1,objects,big,0,1,objects,P,small,VS,O,79,E04,327.740234375
2,1,1,24988,2.3984375,0.162109375,2,1,12,59,4,1114.94030761719,580.743103027344,0,1,objects,big,0,1,objects,P,small,VS,O,79,E04,327.740234375
1,1,1,25017,1.40234375,0.17578125,1,1,14,74,9,1403.96142578125,221.122207641602,0,1,faces,male,0,1,faces,A,male,VS,I,83,E04,344.537109375
2,1,0,25020,2.109375,0.138671875,2,1,14,74,12,1407.52697753906,217.616561889648,0,1,faces,male,0,1,faces,A,male,VS,I,83,E04,344.537109375
0,1,1,25031,1.314453125,0.234375,1,1,6,42,3,947.120971679688,612.924926757812,0,1,faces,female,0,1,objects,A,small,EX,O,84,E04,348.736328125
0,1,1,25034,3.01171875,0.23046875,2,1,3,25,6,723.052368164062,708.140625,0,1,faces,male,0,1,objects,A,small,EX,O,84,E04,348.736328125
0,1,0,25036,3.421875,0.22265625,3,1,4,27,8,790.702026367188,917.878173828125,0,1,objects,small,0,1,objects,A,small,EX,O,84,E04,348.736328125
0,1,1,25037,3.66796875,0.166015625,4,1,7,45,9,940.908386230469,917.902221679688,0,1,faces,male,0,1,objects,A,small,EX,O,84,E04,348.736328125
0,1,0,25054,0.6640625,0.115234375,1,1,5,23,3,721.343627929688,531.173828125,0,1,faces,male,0,0,faces,P,female,VS,I,85,E04,352.935546875
0,1,0,25056,1.13671875,0.21875,2,1,1,2,5,568.049011230469,213.798187255859,0,1,faces,female,0,0,faces,P,female,VS,I,85,E04,352.935546875
0,1,0,25059,1.998046875,0.146484375,3,1,10,36,8,824.125915527344,894.483215332031,0,1,objects,big,0,0,faces,P,female,VS,I,85,E04,352.935546875
0,1,0,25060,2.162109375,0.19140625,4,1,6,27,9,788.2109375,946.922119140625,0,1,faces,male,0,0,faces,P,female,VS,I,85,E04,352.935546875
0,1,1,25061,2.423828125,0.15625,5,0,15,81,10,1379.46887207031,909.6884765625,0,1,faces,female,0,0,faces,P,female,VS,I,85,E04,352.935546875
0,1,1,25063,2.837890625,0.14453125,6,0,12,51,12,1026.71533203125,650.587036132812,0,1,faces,female,0,0,faces,P,female,VS,I,85,E04,352.935546875
0,1,0,25065,3.18359375,0.126953125,7,0,11,43,14,936.034118652344,712.579467773438,0,1,faces,female,0,0,faces,P,female,VS,I,85,E04,352.935546875
1,1,1,25081,0.6171875,0.158203125,1,1,14,78,3,1363.62524414062,689.051574707031,1,0,NaN,NaN,1,1,faces,P,female,VS,I,86,E04,357.134765625
1,0,1,25083,1.150390625,0.130859375,2,1,6,36,5,853.492065429688,899.820556640625,0,1,faces,female,1,1,faces,P,female,VS,I,86,E04,357.134765625
2,0,0,25085,1.416015625,0.1015625,3,1,14,78,7,1379.73168945312,654.837951660156,1,0,NaN,NaN,1,1,faces,P,female,VS,I,86,E04,357.134765625
2,0,1,25087,2.3515625,0.15625,4,1,6,36,9,848.971069335938,913.553527832031,0,1,faces,female,1,1,faces,P,female,VS,I,86,E04,357.134765625
0,0,0,25089,2.861328125,0.236328125,5,0,10,60,11,1148.55285644531,598.503356933594,0,1,objects,big,1,1,faces,P,female,VS,I,86,E04,357.134765625
0,0,0,25093,3.865234375,0.130859375,6,0,2,16,15,630.121520996094,762.765075683594,0,1,faces,male,1,1,faces,P,female,VS,I,86,E04,357.134765625
0,1,0,25104,0.22265625,0.1640625,1,1,8,39,1,932.048828125,362.973785400391,0,1,faces,female,0,1,faces,A,male,EX,F,87,E04,361.333984375
0,1,0,25111,1.947265625,0.16796875,2,1,13,62,8,1115.11315917969,850.106567382812,0,1,faces,male,0,1,faces,A,male,EX,F,87,E04,361.333984375
0,1,0,25134,1.259765625,0.2734375,1,1,9,54,6,1078.15356445312,900.693237304688,0,1,faces,female,0,1,objects,A,big,EX,O,88,E04,365.533203125
0,1,0,25136,3.453125,0.267578125,2,1,7,42,8,928.70849609375,593.141662597656,0,1,objects,small,0,1,objects,A,big,EX,O,88,E04,365.533203125
0,1,0,25145,0.56640625,0.134765625,1,1,13,67,3,1268.029296875,418.193267822266,0,1,objects,small,0,1,objects,P,big,VS,O,89,E04,369.732421875
1,1,1,25170,0.19140625,0.21484375,1,1,4,41,1,964.03857421875,530.350646972656,0,1,faces,male,0,1,faces,A,male,VS,F,92,E04,382.330078125
1,1,0,25172,0.6015625,0.2890625,2,1,3,40,3,960.531677246094,477.596862792969,0,1,objects,big,0,1,faces,A,male,VS,F,92,E04,382.330078125
2,1,0,25173,0.916015625,0.23828125,3,1,4,41,4,953.335998535156,573.043701171875,0,1,faces,male,0,1,faces,A,male,VS,F,92,E04,382.330078125
2,1,0,25174,1.177734375,0.298828125,4,1,3,40,5,954.966430664062,467.216186523438,0,1,objects,big,0,1,faces,A,male,VS,F,92,E04,382.330078125
0,1,0,25179,2.482421875,0.33203125,5,0,13,75,10,1350.13256835938,363.614959716797,0,1,faces,female,0,1,faces,A,male,VS,F,92,E04,382.330078125
0,1,0,25189,0.021484375,0.181640625,1,1,7,35,1,826.022033691406,798.559326171875,1,0,NaN,NaN,1,1,faces,P,male,VS,I,93,E04,386.529296875
1,1,0,25190,0.21875,0.1953125,2,1,6,34,2,842.453857421875,758.673522949219,0,1,objects,big,1,1,faces,P,male,VS,I,93,E04,386.529296875
2,1,0,25192,0.6015625,0.607421875,3,1,6,34,4,855.070129394531,773.308044433594,0,1,objects,big,1,1,faces,P,male,VS,I,93,E04,386.529296875
3,1,0,25198,3.521484375,0.138671875,4,1,6,34,10,823.145080566406,723.858703613281,0,1,objects,big,1,1,faces,P,male,VS,I,93,E04,386.529296875
0,1,0,25210,0.203125,0.1484375,1,1,8,51,1,1052.22827148438,661.663024902344,0,1,faces,male,1,1,faces,P,female,VS,F,97,E04,403.326171875
1,1,1,25211,0.373046875,0.19921875,2,1,9,52,2,1057.93078613281,724.741271972656,0,1,faces,female,1,1,faces,P,female,VS,F,97,E04,403.326171875
0,1,0,25214,1.125,0.25,3,1,7,36,5,871.543090820312,975.911376953125,0,1,faces,female,1,1,faces,P,female,VS,F,97,E04,403.326171875
1,1,0,25215,1.41015625,0.23828125,4,1,2,9,6,579.964599609375,941.283264160156,0,1,faces,female,1,1,faces,P,female,VS,F,97,E04,403.326171875
0,1,0,25216,1.662109375,0.224609375,5,0,1,8,7,572.978698730469,886.241088867188,0,1,faces,male,1,1,faces,P,female,VS,F,97,E04,403.326171875
2,1,0,25217,1.904296875,0.2109375,6,0,2,9,8,573.622131347656,959.154418945312,0,1,faces,female,1,1,faces,P,female,VS,F,97,E04,403.326171875
2,1,0,25218,2.158203125,0.21484375,7,0,9,52,9,1096.91564941406,741.910888671875,0,1,faces,female,1,1,faces,P,female,VS,F,97,E04,403.326171875
0,1,0,25219,2.396484375,0.185546875,8,0,11,60,10,1193.04699707031,666.102783203125,0,1,objects,big,1,1,faces,P,female,VS,F,97,E04,403.326171875
0,1,0,25220,2.607421875,0.236328125,9,0,12,68,11,1286.99975585938,582.764465332031,0,1,faces,female,1,1,faces,P,female,VS,F,97,E04,403.326171875
0,1,0,25223,3.224609375,0.130859375,10,0,13,69,14,1269.74877929688,683.587585449219,1,0,NaN,NaN,1,1,faces,P,female,VS,F,97,E04,403.326171875
0,1,1,25235,0.525390625,0.142578125,1,1,7,43,3,931.859130859375,729.592407226562,0,1,faces,male,1,1,faces,P,male,VS,F,98,E04,407.525390625
0,1,0,25239,1.353515625,0.294921875,2,1,13,77,7,1382.14929199219,558.718383789062,0,1,faces,female,1,1,faces,P,male,VS,F,98,E04,407.525390625
0,0,0,25241,1.880859375,2.353515625,3,1,15,80,9,1395.20104980469,885.958190917969,1,0,NaN,NaN,1,1,faces,P,male,VS,F,98,E04,407.525390625
1,1,0,25250,0.173828125,0.25390625,1,1,7,42,1,940.224243164062,601.162109375,0,1,objects,big,0,1,faces,A,female,EX,F,99,E04,411.724609375
0,1,0,25251,0.4453125,0.1875,2,1,6,41,2,977.616943359375,558.328308105469,0,1,objects,small,0,1,faces,A,female,EX,F,99,E04,411.724609375
2,1,0,25252,0.650390625,0.703125,3,1,7,42,3,972.173583984375,634.9931640625,0,1,objects,big,0,1,faces,A,female,EX,F,99,E04,411.724609375
0,1,0,25253,1.3828125,0.25,4,1,10,50,4,1077.50085449219,530.017578125,0,1,faces,male,0,1,faces,A,female,EX,F,99,E04,411.724609375
0,1,0,25254,1.673828125,0.12890625,5,0,14,75,5,1325.82507324219,332.366058349609,0,1,faces,male,0,1,faces,A,female,EX,F,99,E04,411.724609375
0,1,0,25257,3.1796875,0.275390625,6,0,2,5,8,524.405944824219,559.162719726562,0,1,faces,male,0,1,faces,A,female,EX,F,99,E04,411.724609375
0,1,0,25269,0.205078125,0.16015625,1,1,9,50,1,1087.08569335938,545.488586425781,0,1,objects,big,1,0,faces,P,male,VS,F,100,E04,415.923828125
0,1,0,25270,0.39453125,0.205078125,2,1,13,67,2,1266.14733886719,474.294189453125,0,1,faces,female,1,0,faces,P,male,VS,F,100,E04,415.923828125
0,1,0,25271,0.626953125,0.30859375,3,1,8,49,3,1084.15734863281,466.866149902344,0,1,faces,male,1,0,faces,P,male,VS,F,100,E04,415.923828125
1,1,1,25273,1.037109375,0.177734375,4,1,15,79,5,1378.91748046875,753.991943359375,0,1,faces,male,1,0,faces,P,male,VS,F,100,E04,415.923828125
0,1,0,25275,1.427734375,0.259765625,5,0,14,72,7,1294.24255371094,934.212707519531,0,1,faces,female,1,0,faces,P,male,VS,F,100,E04,415.923828125
2,1,0,25276,1.7265625,0.265625,6,0,15,79,8,1375.37536621094,744.161682128906,0,1,faces,male,1,0,faces,P,male,VS,F,100,E04,415.923828125
0,1,1,25277,2.0546875,0.140625,7,0,3,17,9,704.925476074219,794.717407226562,0,1,faces,male,1,0,faces,P,male,VS,F,100,E04,415.923828125
0,1,0,25280,2.619140625,0.13671875,8,0,1,3,12,572.637756347656,385.178009033203,0,1,faces,female,1,0,faces,P,male,VS,F,100,E04,415.923828125
1,1,0,25281,2.77734375,0.244140625,9,0,2,13,13,647.721313476562,459.449737548828,0,1,faces,male,1,0,faces,P,male,VS,F,100,E04,415.923828125
0,1,0,25282,3.064453125,0.181640625,10,0,11,56,14,1117.19738769531,269.158508300781,1,0,NaN,NaN,1,0,faces,P,male,VS,F,100,E04,415.923828125
2,1,0,25283,3.349609375,0.412109375,11,0,2,13,15,644.493957519531,478.018859863281,0,1,faces,male,1,0,faces,P,male,VS,F,100,E04,415.923828125
0,1,1,25297,0.220703125,0.14453125,1,1,7,51,1,1042.060546875,689.847778320312,0,1,objects,big,0,1,faces,A,female,EX,I,101,E04,420.123046875
0,1,0,25326,0.916015625,0.12109375,1,1,12,59,5,1157.59924316406,492.970031738281,0,1,faces,female,0,0,faces,P,female,VS,I,102,E04,424.322265625
0,1,0,25329,1.2734375,0.154296875,2,1,13,61,8,1174.72631835938,695.466003417969,0,1,objects,small,0,0,faces,P,female,VS,I,102,E04,424.322265625
0,1,0,25330,1.46484375,0.28515625,3,1,7,41,9,964.064758300781,531.970764160156,0,1,faces,male,0,0,faces,P,female,VS,I,102,E04,424.322265625
0,1,0,25331,1.779296875,0.294921875,4,1,6,30,10,851.580932617188,351.031768798828,0,1,faces,female,0,0,faces,P,female,VS,I,102,E04,424.322265625
0,1,0,25332,2.109375,0.279296875,5,0,2,10,11,673.933349609375,160.835754394531,0,1,faces,male,0,0,faces,P,female,VS,I,102,E04,424.322265625
1,1,0,25333,2.408203125,0.201171875,6,0,4,19,12,760.950256347656,149.743438720703,0,1,faces,female,0,0,faces,P,female,VS,I,102,E04,424.322265625
0,1,1,25335,2.71484375,0.201171875,7,0,3,11,14,654.402282714844,237.896896362305,0,1,faces,female,0,0,faces,P,female,VS,I,102,E04,424.322265625
2,1,1,25336,2.96875,0.1015625,8,0,4,19,15,750.312866210938,180.091690063477,0,1,faces,female,0,0,faces,P,female,VS,I,102,E04,424.322265625
0,1,0,25338,3.396484375,0.33203125,9,0,14,65,17,1303.72863769531,249.539321899414,0,1,objects,small,0,0,faces,P,female,VS,I,102,E04,424.322265625
0,1,0,25339,3.77734375,0.1875,10,0,1,1,18,528.993103027344,156.457794189453,0,1,objects,big,0,0,faces,P,female,VS,I,102,E04,424.322265625
0,1,0,25356,0.41015625,0.12890625,1,1,5,22,2,751.540710449219,430.102203369141,0,1,objects,small,1,1,objects,P,big,VS,O,103,E04,428.521484375
0,1,0,25361,1.08203125,0.16015625,2,1,9,58,7,1132.35400390625,461.960876464844,0,1,faces,male,1,1,objects,P,big,VS,O,103,E04,428.521484375
0,1,0,25362,1.25390625,0.1640625,3,1,7,49,8,1101.42565917969,454.232269287109,0,1,faces,female,1,1,objects,P,big,VS,O,103,E04,428.521484375
0,1,0,25364,1.630859375,0.267578125,4,1,12,74,10,1398.95373535156,268.463165283203,0,1,objects,small,1,1,objects,P,big,VS,O,103,E04,428.521484375
0,1,0,25366,2.119140625,0.181640625,5,0,8,53,12,1062.88842773438,819.773864746094,0,1,faces,female,1,1,objects,P,big,VS,O,103,E04,428.521484375
0,1,0,25369,2.68359375,0.13671875,6,0,11,67,15,1256.80505371094,430.015777587891,0,1,faces,female,1,1,objects,P,big,VS,O,103,E04,428.521484375
1,1,0,25370,2.85546875,0.103515625,7,0,10,60,16,1177.13391113281,629.5546875,1,0,NaN,NaN,1,1,objects,P,big,VS,O,103,E04,428.521484375
2,0,0,25372,3.06640625,0.978515625,8,0,10,60,18,1195.2783203125,591.438537597656,1,0,NaN,NaN,1,1,objects,P,big,VS,O,103,E04,428.521484375
0,1,0,25391,1.62109375,0.44140625,1,1,7,48,5,1078.38854980469,381.019866943359,0,1,objects,small,0,1,objects,A,big,EX,O,104,E04,432.720703125
0,1,0,25393,2.2265625,0.150390625,2,1,4,37,7,997.992065429688,187.057037353516,0,1,faces,female,0,1,objects,A,big,EX,O,104,E04,432.720703125
0,1,0,25415,0.201171875,0.150390625,1,1,3,32,1,864.166320800781,516.1279296875,0,1,objects,big,0,1,faces,P,female,VS,F,105,E04,436.919921875
0,1,1,25417,0.453125,0.15625,2,1,4,34,3,826.922973632812,742.872680664062,0,1,faces,male,0,1,faces,P,female,VS,F,105,E04,436.919921875
1,1,1,25420,0.95703125,0.193359375,3,1,9,61,6,1129.89709472656,735.340881347656,0,1,faces,female,0,1,faces,P,female,VS,F,105,E04,436.919921875
1,1,0,25427,3.080078125,0.169921875,4,1,13,70,13,1255.81982421875,766.680236816406,0,1,objects,big,0,1,faces,P,female,VS,F,105,E04,436.919921875
2,1,1,25428,3.26953125,0.150390625,5,0,9,61,14,1194.06225585938,761.9140625,0,1,faces,female,0,1,faces,P,female,VS,F,105,E04,436.919921875
2,1,1,25430,3.61328125,0.19140625,6,0,13,70,16,1301.76086425781,740.776123046875,0,1,objects,big,0,1,faces,P,female,VS,F,105,E04,436.919921875
0,1,0,25443,0.224609375,0.2578125,1,1,3,22,1,738.349914550781,458.497497558594,0,1,objects,small,0,0,faces,A,female,VS,F,106,E04,441.119140625
0,1,1,25444,0.529296875,0.1484375,2,1,4,26,2,774.677917480469,852.067016601562,0,1,objects,big,0,0,faces,A,female,VS,F,106,E04,441.119140625
0,1,0,25446,0.89453125,0.12109375,3,1,6,35,4,865.386474609375,843.302001953125,0,1,faces,female,0,0,faces,A,female,VS,F,106,E04,441.119140625
0,1,0,25448,1.201171875,0.2265625,4,1,2,11,6,656.116821289062,264.735748291016,0,1,faces,female,0,0,faces,A,female,VS,F,106,E04,441.119140625
0,1,0,25450,1.62109375,0.17578125,5,0,1,4,8,564.840087890625,471.895538330078,0,1,faces,female,0,0,faces,A,female,VS,F,106,E04,441.119140625
0,1,0,25451,1.849609375,0.1640625,6,0,10,64,9,1249.12438964844,170.783279418945,0,1,faces,female,0,0,faces,A,female,VS,F,106,E04,441.119140625
0,1,1,25454,2.435546875,0.16796875,7,0,13,71,12,1297.24145507812,822.522338867188,0,1,faces,female,0,0,faces,A,female,VS,F,106,E04,441.119140625
0,1,0,25461,3.796875,0.130859375,8,0,14,73,19,1393.79626464844,190.19905090332,0,1,faces,female,0,0,faces,A,female,VS,F,106,E04,441.119140625
1,0,1,25474,0.36328125,0.26953125,1,1,2,6,2,544.836059570312,632.09619140625,1,0,NaN,NaN,1,0,objects,P,big,VS,O,107,E04,445.318359375
2,0,1,25479,2.03515625,1.611328125,2,1,2,6,7,568.008605957031,649.788696289062,1,0,NaN,NaN,1,0,objects,P,big,VS,O,107,E04,445.318359375
1,1,0,25502,0.884765625,0.412109375,1,1,4,22,4,745.197448730469,487.755920410156,0,1,faces,female,0,0,faces,A,female,VS,I,108,E04,449.517578125
1,1,0,25503,1.333984375,0.267578125,2,1,11,48,5,1024.46264648438,327.065307617188,0,1,faces,female,0,0,faces,A,female,VS,I,108,E04,449.517578125
0,1,0,25505,1.84765625,0.298828125,3,1,6,30,7,839.116394042969,386.513153076172,0,1,objects,small,0,0,faces,A,female,VS,I,108,E04,449.517578125
2,1,1,25506,2.171875,0.1171875,4,1,4,22,8,772.492980957031,429.329620361328,0,1,faces,female,0,0,faces,A,female,VS,I,108,E04,449.517578125
2,1,1,25508,2.677734375,0.12109375,5,0,11,48,10,1056.34826660156,327.865051269531,0,1,faces,female,0,0,faces,A,female,VS,I,108,E04,449.517578125
0,1,0,25510,3.21875,0.19921875,6,0,3,19,12,734.451538085938,184.953857421875,0,1,faces,female,0,0,faces,A,female,VS,I,108,E04,449.517578125
0,1,1,25534,0.556640625,0.197265625,1,1,1,8,3,538.779541015625,887.099609375,0,1,objects,big,0,0,faces,A,male,VS,F,109,E04,453.716796875
0,1,0,25536,0.900390625,0.2265625,2,1,5,23,5,712.699157714844,552.467712402344,0,1,objects,big,0,0,faces,A,male,VS,F,109,E04,453.716796875
0,1,0,25537,1.1484375,0.25390625,3,1,2,13,6,625.721008300781,477.160705566406,0,1,objects,small,0,0,faces,A,male,VS,F,109,E04,453.716796875
0,1,0,25538,1.431640625,0.24609375,4,1,4,21,7,758.314575195312,386.765533447266,0,1,faces,female,0,0,faces,A,male,VS,F,109,E04,453.716796875
1,1,1,25539,1.71484375,0.171875,5,0,7,25,8,715.0380859375,729.676696777344,0,1,faces,female,0,0,faces,A,male,VS,F,109,E04,453.716796875
2,1,1,25542,2.662109375,0.14453125,6,0,7,25,11,803.924194335938,716.554870605469,0,1,faces,female,0,0,faces,A,male,VS,F,109,E04,453.716796875
0,1,0,25545,3.26953125,0.431640625,7,0,9,42,14,984.77099609375,641.659423828125,0,1,faces,male,0,0,faces,A,male,VS,F,109,E04,453.716796875
0,1,0,25565,0.244140625,0.125,1,1,3,30,1,851.969482421875,364.708801269531,0,1,objects,big,0,1,objects,A,big,VS,O,110,E04,457.916015625
0,1,0,25566,0.404296875,0.25390625,2,1,4,33,2,899.939208984375,613.884765625,0,1,objects,small,0,1,objects,A,big,VS,O,110,E04,457.916015625
0,1,0,25567,0.69140625,0.197265625,3,1,12,70,3,1217.92932128906,764.048706054688,0,1,faces,female,0,1,objects,A,big,VS,O,110,E04,457.916015625
0,1,0,25569,1.25,0.130859375,4,1,15,79,5,1403.50512695312,725.155151367188,0,1,objects,big,0,1,objects,A,big,VS,O,110,E04,457.916015625
0,1,0,25571,1.67578125,0.15234375,5,0,14,73,7,1402.8349609375,154.914566040039,0,1,faces,female,0,1,objects,A,big,VS,O,110,E04,457.916015625
0,1,0,25572,1.884765625,0.119140625,6,0,5,46,8,1101.70324707031,160.728149414062,0,1,faces,female,0,1,objects,A,big,VS,O,110,E04,457.916015625
0,1,0,25577,2.900390625,0.482421875,7,0,6,53,13,1106.75732421875,827.817626953125,0,1,objects,big,0,1,objects,A,big,VS,O,110,E04,457.916015625
0,1,0,25590,0.330078125,0.154296875,1,1,2,8,1,571.130920410156,811.298278808594,0,1,faces,male,0,1,objects,A,small,VS,O,111,E04,462.115234375
0,1,1,25591,0.51953125,0.14453125,2,1,13,53,2,1027.41052246094,847.441467285156,0,1,objects,big,0,1,objects,A,small,VS,O,111,E04,462.115234375
0,1,1,25593,0.802734375,0.14453125,3,1,12,49,4,1057.55603027344,481.137512207031,0,1,faces,male,0,1,objects,A,small,VS,O,111,E04,462.115234375
1,1,0,25595,1.16015625,0.193359375,4,1,11,39,6,986.076232910156,344.258514404297,0,1,faces,female,0,1,objects,A,small,VS,O,111,E04,462.115234375
0,1,0,25596,1.40625,0.1484375,5,0,4,14,7,621.383361816406,536.244323730469,0,1,objects,small,0,1,objects,A,small,VS,O,111,E04,462.115234375
0,1,1,25597,1.59765625,0.126953125,6,0,15,75,8,1364.83642578125,373.810394287109,0,1,faces,male,0,1,objects,A,small,VS,O,111,E04,462.115234375
0,1,0,25599,1.90625,0.171875,7,0,10,37,10,990.113830566406,187.783340454102,0,1,objects,small,0,1,objects,A,small,VS,O,111,E04,462.115234375
1,1,1,25600,2.130859375,0.15234375,8,0,1,7,11,532.170043945312,695.680908203125,0,1,objects,big,0,1,objects,A,small,VS,O,111,E04,462.115234375
2,1,1,25602,2.40625,0.1796875,9,0,1,7,13,517.272399902344,746.317565917969,0,1,objects,big,0,1,objects,A,small,VS,O,111,E04,462.115234375
0,1,0,25605,2.841796875,0.1875,10,0,6,30,16,882.729431152344,347.081207275391,0,1,faces,female,0,1,objects,A,small,VS,O,111,E04,462.115234375
2,1,0,25606,3.048828125,0.208984375,11,0,11,39,17,963.385437011719,359.903472900391,0,1,faces,female,0,1,objects,A,small,VS,O,111,E04,462.115234375
0,1,0,25619,0.443359375,0.201171875,1,1,8,49,3,1071.34826660156,476.537536621094,0,1,faces,male,0,1,faces,A,male,EX,F,112,E04,466.314453125
0,1,0,25622,1.716796875,0.208984375,2,1,14,75,6,1316.04443359375,379.992797851562,0,1,faces,male,0,1,faces,A,male,EX,F,112,E04,466.314453125
0,1,0,25623,1.9453125,0.24609375,3,1,10,66,7,1266.54284667969,377.136688232422,0,1,faces,male,0,1,faces,A,male,EX,F,112,E04,466.314453125
1,1,0,25624,2.232421875,0.19140625,4,1,6,40,8,977.725830078125,399.409423828125,0,1,objects,big,0,1,faces,A,male,EX,F,112,E04,466.314453125
0,1,0,25625,2.443359375,0.115234375,5,0,7,48,9,1062.04711914062,381.824615478516,0,1,faces,female,0,1,faces,A,male,EX,F,112,E04,466.314453125
2,1,0,25626,2.580078125,0.189453125,6,0,6,40,10,946.277221679688,444.254455566406,0,1,objects,big,0,1,faces,A,male,EX,F,112,E04,466.314453125
0,1,1,25627,2.80859375,0.1328125,7,0,9,62,11,1191.6962890625,866.210205078125,0,1,faces,female,0,1,faces,A,male,EX,F,112,E04,466.314453125
0,1,0,25629,3.353515625,0.150390625,8,0,5,30,13,871.821350097656,342.161560058594,0,1,objects,small,0,1,faces,A,male,EX,F,112,E04,466.314453125
0,1,1,25630,3.5234375,0.365234375,9,0,4,21,14,788.176635742188,345.660064697266,0,1,objects,small,0,1,faces,A,male,EX,F,112,E04,466.314453125
0,1,0,25645,0.279296875,0.14453125,1,1,5,26,1,732.178039550781,820.284240722656,0,1,faces,male,0,1,faces,A,male,EX,I,113,E04,470.513671875
1,1,1,25646,0.529296875,0.13671875,2,1,4,14,2,638.693542480469,585.026306152344,0,1,objects,small,0,1,faces,A,male,EX,I,113,E04,470.513671875
0,1,1,25648,1.2265625,0.21875,3,1,6,51,4,1108.93188476562,622.75390625,0,1,objects,small,0,1,faces,A,male,EX,I,113,E04,470.513671875
0,1,0,25650,2.35546875,0.16796875,4,1,14,75,6,1365.85681152344,353.662414550781,0,1,objects,small,0,1,faces,A,male,EX,I,113,E04,470.513671875
0,1,0,25651,2.54296875,0.1953125,5,0,12,66,7,1302.23913574219,363.236938476562,0,1,faces,male,0,1,faces,A,male,EX,I,113,E04,470.513671875
0,1,0,25652,2.767578125,0.201171875,6,0,11,65,8,1290.95263671875,262.733245849609,0,1,objects,big,0,1,faces,A,male,EX,I,113,E04,470.513671875
0,1,1,25653,3.025390625,0.1796875,7,0,2,2,9,535.851379394531,240.211975097656,0,1,faces,male,0,1,faces,A,male,EX,I,113,E04,470.513671875
2,1,1,25655,3.505859375,0.13671875,8,0,4,14,11,626.546325683594,506.26171875,0,1,objects,small,0,1,faces,A,male,EX,I,113,E04,470.513671875
0,1,0,25669,0.837890625,0.28515625,1,1,3,7,5,510.273559570312,748.017395019531,0,1,faces,female,0,0,faces,A,male,VS,I,114,E04,474.712890625
0,1,1,25670,1.166015625,0.154296875,2,1,7,12,6,654.674743652344,336.373718261719,0,1,faces,female,0,0,faces,A,male,VS,I,114,E04,474.712890625
0,1,0,25672,1.47265625,0.365234375,3,1,6,11,8,613.567993164062,220.084625244141,0,1,faces,male,0,0,faces,A,male,VS,I,114,E04,474.712890625
0,1,0,25673,1.865234375,0.224609375,4,1,5,10,9,611.561157226562,135.34504699707,0,1,objects,big,0,0,faces,A,male,VS,I,114,E04,474.712890625
0,1,0,25675,2.359375,0.205078125,5,0,15,69,11,1228.29553222656,610.949340820312,0,1,faces,male,0,0,faces,A,male,VS,I,114,E04,474.712890625
0,1,0,25676,2.60546875,0.275390625,6,0,14,67,12,1221.67883300781,403.939147949219,0,1,faces,female,0,0,faces,A,male,VS,I,114,E04,474.712890625
0,1,0,25677,2.91015625,0.19921875,7,0,11,49,13,1014.98828125,419.257629394531,0,1,faces,male,0,0,faces,A,male,VS,I,114,E04,474.712890625
0,1,0,25678,3.154296875,0.2265625,8,0,4,9,14,596.044555664062,926.425109863281,0,1,faces,male,0,0,faces,A,male,VS,I,114,E04,474.712890625
0,1,0,25680,3.64453125,0.173828125,9,0,12,52,16,1011.32849121094,757.806823730469,0,1,objects,big,0,0,faces,A,male,VS,I,114,E04,474.712890625
0,1,0,25692,0.201171875,0.400390625,1,1,9,35,1,832.2587890625,860.245056152344,0,1,faces,male,1,0,faces,P,female,VS,I,115,E04,478.912109375
0,1,1,25693,0.640625,0.119140625,2,1,5,25,2,762.070495605469,773.876586914062,0,1,faces,male,1,0,faces,P,female,VS,I,115,E04,478.912109375
0,1,0,25696,1.1484375,0.34375,3,1,13,60,5,1147.13049316406,620.725036621094,0,1,faces,female,1,0,faces,P,female,VS,I,115,E04,478.912109375
0,1,0,25697,1.54296875,0.123046875,4,1,11,38,6,1005.34735107422,286.922302246094,0,1,objects,small,1,0,faces,P,female,VS,I,115,E04,478.912109375
0,1,0,25698,1.69140625,0.337890625,5,0,12,47,7,1031.34619140625,241.394622802734,0,1,faces,female,1,0,faces,P,female,VS,I,115,E04,478.912109375
0,0,0,25703,3.044921875,0.77734375,6,0,2,3,12,512.234741210938,318.102996826172,1,0,NaN,NaN,1,0,faces,P,female,VS,I,115,E04,478.912109375
0,1,0,25716,0.275390625,0.2109375,1,1,5,16,2,625.163208007812,761.052978515625,0,1,objects,big,1,0,faces,P,female,VS,I,116,E04,483.111328125
0,1,0,25718,0.658203125,0.142578125,2,1,4,5,4,519.010864257812,549.7353515625,0,1,faces,female,1,0,faces,P,female,VS,I,116,E04,483.111328125
1,1,0,25719,0.833984375,0.2421875,3,1,10,41,5,910.737426757812,531.384826660156,0,1,faces,male,1,0,faces,P,female,VS,I,116,E04,483.111328125
0,0,0,25720,1.09765625,0.22265625,4,1,9,40,6,927.760559082031,432.393707275391,1,0,NaN,NaN,1,0,faces,P,female,VS,I,116,E04,483.111328125
2,0,0,25721,1.341796875,0.1796875,5,0,10,41,7,929.751953125,526.667358398438,0,1,faces,male,1,0,faces,P,female,VS,I,116,E04,483.111328125
0,0,1,25722,1.560546875,0.171875,6,0,13,70,8,1238.04736328125,712.270080566406,0,1,faces,female,1,0,faces,P,female,VS,I,116,E04,483.111328125
0,0,0,25724,2.056640625,0.154296875,7,0,15,81,10,1380.56225585938,961.763366699219,0,1,objects,big,1,0,faces,P,female,VS,I,116,E04,483.111328125
0,0,0,25726,2.4453125,0.205078125,8,0,14,73,12,1327.28479003906,161.838638305664,0,1,objects,small,1,0,faces,P,female,VS,I,116,E04,483.111328125
0,0,0,25728,2.880859375,0.109375,9,0,2,2,14,515.8642578125,278.914428710938,0,1,objects,small,1,0,faces,P,female,VS,I,116,E04,483.111328125
0,0,0,25729,3.0078125,0.23046875,10,0,3,3,15,523.136047363281,358.063262939453,0,1,faces,male,1,0,faces,P,female,VS,I,116,E04,483.111328125
0,0,0,25730,3.275390625,1.0390625,11,0,1,1,16,534.902709960938,166.937484741211,0,1,faces,female,1,0,faces,P,female,VS,I,116,E04,483.111328125
1,0,0,25742,0.876953125,0.494140625,1,1,3,14,5,622.632568359375,541.015686035156,1,0,NaN,NaN,1,1,objects,P,small,VS,O,117,E04,487.310546875
0,0,0,25743,1.412109375,0.234375,2,1,6,20,6,711.102722167969,264.145660400391,0,1,faces,female,1,1,objects,P,small,VS,O,117,E04,487.310546875
2,0,0,25744,1.6875,0.56640625,3,1,3,14,7,619.317443847656,545.439025878906,1,0,NaN,NaN,1,1,objects,P,small,VS,O,117,E04,487.310546875
0,1,0,25759,1.6015625,0.232421875,1,1,11,50,7,1028.72570800781,516.039306640625,0,1,faces,female,0,0,faces,P,male,VS,I,118,E04,491.509765625
0,1,0,25760,1.861328125,0.2265625,2,1,14,68,8,1239.91394042969,528.622924804688,0,1,faces,female,0,0,faces,P,male,VS,I,118,E04,491.509765625
0,1,0,25762,2.287109375,0.142578125,3,1,13,63,10,1177.26086425781,902.8369140625,0,1,faces,male,0,0,faces,P,male,VS,I,118,E04,491.509765625
0,1,0,25763,2.45703125,0.15625,4,1,10,45,11,950.649719238281,955.299987792969,0,1,faces,male,0,0,faces,P,male,VS,I,118,E04,491.509765625
0,1,0,25764,2.673828125,0.263671875,5,0,8,38,12,918.002380371094,257.789794921875,0,1,faces,male,0,0,faces,P,male,VS,I,118,E04,491.509765625
0,1,0,25765,2.974609375,0.345703125,6,0,1,2,13,524.453552246094,255.793792724609,0,1,faces,male,0,0,faces,P,male,VS,I,118,E04,491.509765625
0,1,0,25767,3.5546875,0.15234375,7,0,5,19,15,746.194641113281,189.20344543457,0,1,faces,male,0,0,faces,P,male,VS,I,118,E04,491.509765625
0,1,0,25768,3.7265625,0.23046875,8,0,6,29,16,842.824401855469,236.605453491211,0,1,faces,female,0,0,faces,P,male,VS,I,118,E04,491.509765625
0,1,0,25775,0.208984375,0.158203125,1,1,11,42,1,913.498291015625,633.06103515625,0,1,objects,big,1,1,objects,P,small,VS,O,119,E04,495.708984375
0,1,0,25776,0.41015625,0.2734375,2,1,6,17,2,635.384704589844,863.630493164062,0,1,faces,male,1,1,objects,P,small,VS,O,119,E04,495.708984375
0,1,0,25777,0.7265625,0.16015625,3,1,3,6,3,587.261291503906,654.040710449219,0,1,faces,female,1,1,objects,P,small,VS,O,119,E04,495.708984375
0,1,1,25778,0.919921875,0.1953125,4,1,9,26,4,727.153442382812,867.223571777344,1,0,NaN,NaN,1,1,objects,P,small,VS,O,119,E04,495.708984375
0,0,0,25780,1.724609375,0.400390625,5,0,4,13,6,619.26318359375,405.841430664062,0,1,faces,female,1,1,objects,P,small,VS,O,119,E04,495.708984375
0,0,0,25783,2.5703125,0.326171875,6,0,14,77,9,1408.97692871094,546.572387695312,0,1,objects,small,1,1,objects,P,small,VS,O,119,E04,495.708984375
0,0,0,25785,3.08984375,0.125,7,0,15,79,11,1384.23071289062,761.526550292969,0,1,faces,male,1,1,objects,P,small,VS,O,119,E04,495.708984375
0,1,0,25805,1.708984375,0.162109375,1,1,11,49,8,1094.36535644531,486.136962890625,0,1,faces,male,0,1,objects,A,small,EX,O,120,E04,499.908203125
1,1,0,25811,2.634765625,0.373046875,2,1,13,65,14,1307.287109375,288.133331298828,0,1,faces,female,0,1,objects,A,small,EX,O,120,E04,499.908203125
0,1,1,25812,3.03125,0.24609375,3,1,15,75,15,1403.92993164062,327.394958496094,0,1,objects,small,0,1,objects,A,small,EX,O,120,E04,499.908203125
2,1,1,25814,3.748046875,0.220703125,4,1,13,65,17,1259.79833984375,221.693481445312,0,1,faces,female,0,1,objects,A,small,EX,O,120,E04,499.908203125
0,1,1,25840,0.703125,0.158203125,1,1,6,34,4,829.391906738281,747.011108398438,0,1,faces,male,1,1,faces,P,male,VS,I,121,E04,504.107421875
0,1,1,25842,0.98828125,0.14453125,2,1,4,27,6,709.769775390625,933.010131835938,0,1,faces,female,1,1,faces,P,male,VS,I,121,E04,504.107421875
0,1,0,25846,1.623046875,0.154296875,3,1,10,53,10,1088.48474121094,829.584777832031,0,1,objects,big,1,1,faces,P,male,VS,I,121,E04,504.107421875
1,0,0,25847,1.826171875,0.220703125,4,1,15,79,11,1406.78149414062,728.306823730469,1,0,NaN,NaN,1,1,faces,P,male,VS,I,121,E04,504.107421875
2,0,0,25849,2.23046875,1.533203125,5,0,15,79,13,1399.79919433594,730.184692382812,1,0,NaN,NaN,1,1,faces,P,male,VS,I,121,E04,504.107421875
0,1,0,25856,0.21484375,0.294921875,1,1,8,24,1,716.963256835938,669.231994628906,0,1,faces,female,0,1,faces,A,female,EX,F,122,E04,508.306640625
0,1,1,25857,0.541015625,0.14453125,2,1,5,14,2,645.310485839844,548.328674316406,0,1,objects,big,0,1,faces,A,female,EX,F,122,E04,508.306640625
0,1,1,25860,1.658203125,0.158203125,3,1,12,56,5,1168.77355957031,219.32568359375,0,1,faces,male,0,1,faces,A,female,EX,F,122,E04,508.306640625
0,1,0,25901,0.984375,0.337890625,1,1,7,42,5,976.674377441406,654.494995117188,0,1,faces,female,0,1,faces,A,female,VS,I,123,E04,512.505859375
0,1,0,25904,1.732421875,0.259765625,2,1,11,57,8,1183.84313964844,385.782165527344,0,1,faces,female,0,1,faces,A,female,VS,I,123,E04,512.505859375
0,1,0,25905,2.0546875,0.314453125,3,1,13,72,9,1308.87353515625,953.23046875,0,1,faces,male,0,1,faces,A,female,VS,I,123,E04,512.505859375
0,1,0,25914,3.921875,0.14453125,4,1,10,53,18,1085.39965820312,831.817565917969,0,1,faces,male,0,1,faces,A,female,VS,I,123,E04,512.505859375
1,1,0,25930,0.896484375,0.17578125,1,1,6,38,5,981.700439453125,290.207885742188,0,1,objects,small,0,1,objects,A,big,VS,O,124,E04,516.705078125
0,1,0,25931,1.125,0.41796875,2,1,15,76,6,1404.26013183594,453.059539794922,0,1,objects,big,0,1,objects,A,big,VS,O,124,E04,516.705078125
0,1,0,25932,1.609375,0.2265625,3,1,1,18,7,659.892700195312,972.647521972656,0,1,faces,male,0,1,objects,A,big,VS,O,124,E04,516.705078125
0,1,0,25933,1.875,0.3203125,4,1,10,62,8,1208.85046386719,856.386840820312,0,1,objects,big,0,1,objects,A,big,VS,O,124,E04,516.705078125
1,1,0,25934,2.2578125,0.212890625,5,0,7,41,9,965.888977050781,572.302124023438,0,1,faces,male,0,1,objects,A,big,VS,O,124,E04,516.705078125
0,1,0,25935,2.521484375,0.33203125,6,0,4,29,10,868.497863769531,267.27685546875,0,1,faces,male,0,1,objects,A,big,VS,O,124,E04,516.705078125
2,1,0,25936,2.873046875,0.150390625,7,0,6,38,11,961.012573242188,266.172912597656,0,1,objects,small,0,1,objects,A,big,VS,O,124,E04,516.705078125
0,1,0,25938,3.466796875,0.22265625,8,0,9,56,13,1164.74340820312,289.478454589844,0,1,faces,male,0,1,objects,A,big,VS,O,124,E04,516.705078125
2,1,0,25940,3.90625,0.15234375,9,0,7,41,15,922.280456542969,586.791809082031,0,1,faces,male,0,1,objects,A,big,VS,O,124,E04,516.705078125
1,1,1,25959,0.015625,0.15625,1,1,4,16,1,685.6474609375,776.685607910156,0,1,faces,male,1,1,faces,P,female,VS,F,125,E04,520.904296875
2,1,1,25965,0.830078125,0.33984375,2,1,4,16,7,645.677612304688,740.224670410156,0,1,faces,male,1,1,faces,P,female,VS,F,125,E04,520.904296875
0,1,0,25966,1.23828125,0.2265625,3,1,9,50,8,1094.41943359375,551.260314941406,0,1,objects,small,1,1,faces,P,female,VS,F,125,E04,520.904296875
0,1,0,25967,1.48828125,0.12109375,4,1,14,68,9,1228.39489746094,560.318603515625,0,1,faces,male,1,1,faces,P,female,VS,F,125,E04,520.904296875
0,1,0,25968,1.62890625,0.19140625,5,0,12,60,10,1199.619140625,608.521728515625,0,1,faces,male,1,1,faces,P,female,VS,F,125,E04,520.904296875
0,1,1,25971,2.20703125,0.107421875,6,0,7,31,13,886.582458496094,484.253997802734,0,1,faces,male,1,1,faces,P,female,VS,F,125,E04,520.904296875
0,1,1,25973,2.455078125,0.142578125,7,0,5,20,15,724.330322265625,248.62092590332,0,1,faces,female,1,1,faces,P,female,VS,F,125,E04,520.904296875
1,0,0,25975,2.87890625,0.265625,8,0,1,2,17,547.6396484375,242.808624267578,1,0,NaN,NaN,1,1,faces,P,female,VS,F,125,E04,520.904296875
2,0,0,25977,3.453125,0.15625,9,0,1,2,19,544.131958007812,247.885330200195,1,0,NaN,NaN,1,1,faces,P,female,VS,F,125,E04,520.904296875
0,1,0,25995,0.9296875,0.1953125,1,1,5,34,5,842.801513671875,718.449157714844,0,1,faces,female,1,1,faces,P,female,VS,F,126,E04,525.103515625
0,1,1,25998,1.4765625,0.208984375,2,1,15,80,8,1341.43139648438,826.916320800781,0,1,faces,male,1,1,faces,P,female,VS,F,126,E04,525.103515625
1,0,0,26002,2.2421875,0.66796875,3,1,10,50,12,1094.80004882812,565.307678222656,1,0,NaN,NaN,1,1,faces,P,female,VS,F,126,E04,525.103515625
0,0,0,26003,2.9296875,0.12890625,4,1,9,49,13,1084.60974121094,467.430572509766,0,1,objects,small,1,1,faces,P,female,VS,F,126,E04,525.103515625
2,0,1,26006,3.5546875,0.107421875,5,0,10,50,16,1075.73913574219,492.381317138672,1,0,NaN,NaN,1,1,faces,P,female,VS,F,126,E04,525.103515625
0,1,1,26042,0.203125,0.208984375,1,1,9,31,2,822.3525390625,397.944030761719,0,1,faces,male,0,1,objects,A,big,EX,O,127,E04,529.302734375
0,1,1,26045,1.58984375,0.103515625,2,1,15,77,5,1330.41271972656,529.0361328125,0,1,objects,big,0,1,objects,A,big,EX,O,127,E04,529.302734375
0,1,1,26053,3.30078125,0.154296875,3,1,3,10,13,623.251831054688,136.973663330078,0,1,faces,female,0,1,objects,A,big,EX,O,127,E04,529.302734375
0,1,0,26055,3.5625,0.203125,4,1,1,1,15,534.778381347656,146.084060668945,0,1,objects,small,0,1,objects,A,big,EX,O,127,E04,529.302734375
0,1,1,26096,1.5,0.111328125,1,1,6,32,9,887.364807128906,544.638793945312,0,1,faces,male,1,1,faces,P,female,VS,F,128,E04,533.501953125
1,1,1,26104,3.107421875,0.111328125,2,1,2,4,17,564.738037109375,462.152801513672,1,0,NaN,NaN,1,1,faces,P,female,VS,F,128,E04,533.501953125
2,1,1,26106,3.396484375,0.10546875,3,1,2,4,19,576.664001464844,457.291381835938,1,0,NaN,NaN,1,1,faces,P,female,VS,F,128,E04,533.501953125
0,1,0,26109,3.89453125,0.14453125,4,1,8,37,22,923.4853515625,160.166976928711,0,1,faces,female,1,1,faces,P,female,VS,F,128,E04,533.501953125
0,1,1,26143,2.9375,0.1875,1,1,5,21,7,755.239990234375,338.713897705078,0,1,faces,female,0,1,faces,A,male,VS,F,129,E04,537.701171875
0,1,0,26144,3.169921875,0.19140625,2,1,1,4,8,551.971740722656,437.955078125,0,1,faces,male,0,1,faces,A,male,VS,F,129,E04,537.701171875
0,1,1,26145,3.466796875,0.130859375,3,1,8,32,9,893.496643066406,493.851867675781,0,1,objects,small,0,1,faces,A,male,VS,F,129,E04,537.701171875
0,1,0,26180,1.052734375,0.10546875,1,1,3,19,5,795.811462402344,165.322479248047,0,1,faces,female,1,1,objects,P,small,VS,O,130,E04,541.900390625
1,0,0,26181,1.1796875,0.4453125,2,1,8,28,6,853.010498046875,132.822418212891,1,0,NaN,NaN,1,1,objects,P,small,VS,O,130,E04,541.900390625
0,0,0,26182,1.68359375,0.1328125,3,1,12,69,7,1256.29431152344,665.382873535156,0,1,objects,big,1,1,objects,P,small,VS,O,130,E04,541.900390625
2,0,0,26188,3.255859375,0.251953125,4,1,8,28,13,908.630554199219,180.531982421875,1,0,NaN,NaN,1,1,objects,P,small,VS,O,130,E04,541.900390625
0,0,0,26189,3.5625,0.1875,5,0,6,24,14,763.351135253906,662.366088867188,0,1,faces,male,1,1,objects,P,small,VS,O,130,E04,541.900390625
0,1,1,26211,0.935546875,0.212890625,1,1,5,26,5,752.153198242188,866.966979980469,0,1,objects,small,1,1,objects,P,big,VS,O,131,E04,546.099609375
0,0,1,26215,2.11328125,0.65234375,2,1,1,7,9,539.510925292969,783.059326171875,1,0,NaN,NaN,1,1,objects,P,big,VS,O,131,E04,546.099609375
0,1,0,26241,0.552734375,0.181640625,1,1,8,44,4,1004.53100585938,858.490417480469,0,1,objects,big,0,0,faces,P,male,VS,I,132,E04,550.298828125
0,1,0,26249,2.087890625,0.240234375,2,1,3,12,12,687.665344238281,385.9033203125,0,1,objects,big,0,0,faces,P,male,VS,I,132,E04,550.298828125
0,1,0,26251,2.54296875,0.232421875,3,1,1,2,14,553.475952148438,266.375671386719,0,1,faces,female,0,0,faces,P,male,VS,I,132,E04,550.298828125
0,1,0,26254,3.125,0.126953125,4,1,6,32,17,884.164306640625,574.356201171875,0,1,objects,small,0,0,faces,P,male,VS,I,132,E04,550.298828125
0,1,0,26255,3.32421875,0.1328125,5,0,12,65,18,1243.47534179688,280.336059570312,0,1,faces,female,0,0,faces,P,male,VS,I,132,E04,550.298828125
0,1,0,26269,0.3125,0.150390625,1,1,8,32,2,855.508544921875,581.310241699219,0,1,faces,female,0,1,faces,A,male,EX,F,133,E04,554.498046875
0,1,0,26270,0.505859375,0.458984375,2,1,3,9,3,559.601135253906,961.26513671875,0,1,objects,big,0,1,faces,A,male,EX,F,133,E04,554.498046875
0,1,0,26272,1.22265625,0.21875,3,1,13,68,5,1256.51623535156,526.577819824219,0,1,faces,female,0,1,faces,A,male,EX,F,133,E04,554.498046875
0,1,0,26273,1.46484375,0.22265625,4,1,11,60,6,1170.89660644531,656.709167480469,0,1,objects,big,0,1,faces,A,male,EX,F,133,E04,554.498046875
0,1,0,26275,2.0546875,0.55078125,5,0,15,74,8,1362.78588867188,192.0341796875,0,1,objects,small,0,1,faces,A,male,EX,F,133,E04,554.498046875
0,1,0,26277,2.798828125,0.220703125,6,0,7,29,10,880.2578125,283.133422851562,0,1,faces,male,0,1,faces,A,male,EX,F,133,E04,554.498046875
0,1,0,26287,0.248046875,0.259765625,1,1,9,50,2,1045.65979003906,565.9599609375,0,1,faces,female,0,1,objects,A,small,VS,O,134,E04,558.697265625
1,1,0,26290,0.880859375,0.24609375,2,1,3,6,5,556.268737792969,677.552551269531,0,1,faces,female,0,1,objects,A,small,VS,O,134,E04,558.697265625
2,1,1,26295,2.20703125,0.1484375,3,1,3,6,10,513.208435058594,619.074035644531,0,1,faces,female,0,1,objects,A,small,VS,O,134,E04,558.697265625
0,1,0,26298,2.861328125,0.1953125,4,1,15,75,13,1405.26879882812,386.18359375,0,1,faces,male,0,1,objects,A,small,VS,O,134,E04,558.697265625
0,1,0,26302,3.626953125,0.17578125,5,0,10,53,17,1073.42150878906,873.884887695312,0,1,faces,female,0,1,objects,A,small,VS,O,134,E04,558.697265625
0,1,0,26303,3.83203125,0.384765625,6,0,14,71,18,1289.37561035156,864.0009765625,0,1,objects,small,0,1,objects,A,small,VS,O,134,E04,558.697265625
0,1,0,26314,1.169921875,0.2421875,1,1,1,5,6,539.307250976562,560.904418945312,0,1,faces,female,0,1,faces,P,male,VS,F,135,E04,562.896484375
0,1,0,26316,1.701171875,0.244140625,2,1,5,38,8,963.228820800781,268.479522705078,0,1,objects,big,0,1,faces,P,male,VS,F,135,E04,562.896484375
0,1,0,26330,0.4609375,0.1015625,1,1,3,25,3,782.690002441406,763.890563964844,0,1,faces,male,1,1,objects,P,small,VS,O,136,E04,567.095703125
0,1,0,26331,1.083984375,0.1953125,2,1,11,68,4,1244.4423828125,567.72705078125,0,1,objects,small,1,1,objects,P,small,VS,O,136,E04,567.095703125
0,1,1,26332,1.3203125,0.185546875,3,1,8,47,5,1064.61450195312,261.131530761719,1,0,NaN,NaN,1,1,objects,P,small,VS,O,136,E04,567.095703125
0,1,1,26345,0.44921875,0.146484375,1,1,6,24,2,741.228881835938,601.304443359375,0,1,faces,female,0,1,faces,A,female,VS,F,137,E04,571.294921875
0,1,0,26347,1.048828125,0.19140625,2,1,2,13,4,653.442138671875,468.792755126953,0,1,faces,male,0,1,faces,A,female,VS,F,137,E04,571.294921875
0,1,1,26348,1.287109375,0.166015625,3,1,1,8,5,521.161926269531,842.219482421875,0,1,objects,big,0,1,faces,A,female,VS,F,137,E04,571.294921875
0,1,0,26350,1.640625,0.228515625,4,1,3,18,7,652.176025390625,985.178588867188,0,1,faces,female,0,1,faces,A,female,VS,F,137,E04,571.294921875
0,1,0,26351,1.912109375,0.236328125,5,0,14,71,8,1294.568359375,853.787841796875,0,1,faces,female,0,1,faces,A,female,VS,F,137,E04,571.294921875
0,1,0,26353,2.39453125,0.177734375,6,0,8,29,10,874.325622558594,279.427368164062,0,1,objects,small,0,1,faces,A,female,VS,F,137,E04,571.294921875
0,1,0,26354,2.615234375,0.23046875,7,0,15,74,11,1361.1962890625,228.397720336914,0,1,objects,big,0,1,faces,A,female,VS,F,137,E04,571.294921875
0,1,0,26355,2.904296875,0.16015625,8,0,4,19,12,761.827331542969,172.130340576172,0,1,faces,male,0,1,faces,A,female,VS,F,137,E04,571.294921875
0,1,0,26358,3.51953125,0.228515625,9,0,7,25,15,750.101867675781,715.640747070312,0,1,objects,small,0,1,faces,A,female,VS,F,137,E04,571.294921875
0,1,0,26360,3.953125,0.142578125,10,0,13,67,17,1236.00219726562,465.317749023438,0,1,faces,male,0,1,faces,A,female,VS,F,137,E04,571.294921875
0,1,0,26371,1.19140625,0.17578125,1,1,13,68,3,1233.25451660156,564.860900878906,0,1,faces,female,0,1,faces,A,female,EX,I,138,E04,575.494140625
0,1,1,26372,1.388671875,0.283203125,2,1,11,59,4,1158.20568847656,575.62939453125,0,1,objects,big,0,1,faces,A,female,EX,I,138,E04,575.494140625
0,1,0,26374,1.978515625,0.396484375,3,1,2,11,6,710.212829589844,233.46484375,0,1,faces,male,0,1,faces,A,female,EX,I,138,E04,575.494140625
0,1,1,26390,1.205078125,0.14453125,1,1,10,58,4,1129.78674316406,450.462890625,0,1,faces,male,0,1,objects,A,small,EX,O,139,E04,579.693359375
0,1,0,26392,1.642578125,0.326171875,2,1,13,66,6,1294.22009277344,348.922119140625,0,1,faces,male,0,1,objects,A,small,EX,O,139,E04,579.693359375
0,1,0,26393,1.98828125,0.23046875,3,1,12,65,7,1284.10986328125,278.502746582031,0,1,faces,female,0,1,objects,A,small,EX,O,139,E04,579.693359375
0,1,1,26394,2.7734375,0.12109375,4,1,6,45,8,1001.61602783203,986.79541015625,0,1,objects,big,0,1,objects,A,small,EX,O,139,E04,579.693359375
1,1,0,26417,0.64453125,0.169921875,1,1,6,24,3,745.621520996094,655.742553710938,0,1,faces,female,0,1,faces,P,female,VS,I,140,E04,583.892578125
0,1,0,26418,0.853515625,0.31640625,2,1,7,33,4,883.782531738281,620.259521484375,0,1,faces,male,0,1,faces,P,female,VS,I,140,E04,583.892578125
0,1,0,26420,1.37109375,0.26171875,3,1,14,72,6,1263.15759277344,939.421264648438,0,1,faces,male,0,1,faces,P,female,VS,I,140,E04,583.892578125
0,1,0,26424,2.146484375,0.248046875,4,1,5,21,10,732.213684082031,366.637054443359,0,1,faces,male,0,1,faces,P,female,VS,I,140,E04,583.892578125
0,1,0,26425,2.41796875,0.169921875,5,0,3,12,11,627.136657714844,383.185577392578,0,1,faces,male,0,1,faces,P,female,VS,I,140,E04,583.892578125
2,1,0,26429,3.642578125,0.1328125,6,0,6,24,15,809.393188476562,638.636291503906,0,1,faces,female,0,1,faces,P,female,VS,I,140,E04,583.892578125
0,1,0,26449,3.431640625,0.353515625,1,1,9,62,6,1163.00842285156,873.224853515625,0,1,objects,big,0,1,faces,A,male,EX,I,141,E04,588.091796875
0,1,0,26460,1.154296875,0.26171875,1,1,3,22,5,724.774169921875,471.240203857422,0,1,faces,female,0,1,faces,A,male,VS,I,142,E04,592.291015625
0,1,1,26461,1.453125,0.216796875,2,1,11,58,6,1135.67883300781,450.111663818359,0,1,faces,male,0,1,faces,A,male,VS,I,142,E04,592.291015625
0,1,0,26463,1.921875,0.232421875,3,1,14,65,8,1245.83459472656,289.000701904297,0,1,faces,female,0,1,faces,A,male,VS,I,142,E04,592.291015625
0,1,0,26464,2.193359375,0.126953125,4,1,5,28,9,820.186950683594,173.328109741211,0,1,objects,small,0,1,faces,A,male,VS,I,142,E04,592.291015625
1,1,0,26489,0.306640625,0.134765625,1,1,1,5,2,566.948913574219,583.662841796875,0,1,faces,male,0,1,faces,P,female,VS,I,143,E04,596.490234375
1,1,1,26494,0.953125,0.125,2,1,5,14,7,625.795104980469,549.941711425781,0,1,faces,female,0,1,faces,P,female,VS,I,143,E04,596.490234375
2,1,1,26496,1.1875,0.283203125,3,1,5,14,9,614.264953613281,551.080200195312,0,1,faces,female,0,1,faces,P,female,VS,I,143,E04,596.490234375
2,1,1,26497,1.48046875,0.22265625,4,1,1,5,10,609.833129882812,546.97802734375,0,1,faces,male,0,1,faces,P,female,VS,I,143,E04,596.490234375
0,1,0,26500,2.23828125,0.259765625,5,0,13,75,13,1369.25817871094,353.2490234375,0,1,faces,male,0,1,faces,P,female,VS,I,143,E04,596.490234375
0,1,0,26501,2.513671875,0.1484375,6,0,14,76,14,1388.26110839844,425.739562988281,0,1,faces,female,0,1,faces,P,female,VS,I,143,E04,596.490234375
1,0,0,26523,0.591796875,0.203125,1,1,2,15,3,628.175720214844,630.514099121094,1,0,NaN,NaN,1,1,objects,P,small,VS,O,144,E04,600.689453125
0,0,0,26525,1.068359375,0.2109375,2,1,6,49,5,1085.81530761719,419.276916503906,0,1,faces,male,1,1,objects,P,small,VS,O,144,E04,600.689453125
2,0,0,26527,1.490234375,0.1796875,3,1,2,15,7,632.086853027344,643.740173339844,1,0,NaN,NaN,1,1,objects,P,small,VS,O,144,E04,600.689453125
3,0,1,26529,1.94921875,0.251953125,4,1,2,15,9,611.369506835938,648.135070800781,1,0,NaN,NaN,1,1,objects,P,small,VS,O,144,E04,600.689453125
0,1,0,26726,0.279296875,0.20703125,1,1,2,16,1,628.525573730469,693.837341308594,0,1,faces,male,0,1,faces,A,female,VS,F,145,E04,604.888671875
0,1,0,26727,1.072265625,0.19140625,2,1,6,45,2,991.719055175781,928.788757324219,0,1,faces,male,0,1,faces,A,female,VS,F,145,E04,604.888671875
0,1,0,26728,1.2890625,0.3203125,3,1,13,72,3,1284.69738769531,931.636047363281,0,1,objects,big,0,1,faces,A,female,VS,F,145,E04,604.888671875
0,1,0,26729,1.64453125,0.2265625,4,1,12,70,4,1279.42199707031,756.384582519531,0,1,objects,big,0,1,faces,A,female,VS,F,145,E04,604.888671875
1,1,0,26730,1.916015625,0.171875,5,0,15,77,5,1336.39758300781,565.234985351562,0,1,faces,male,0,1,faces,A,female,VS,F,145,E04,604.888671875
0,1,1,26731,2.138671875,0.140625,6,0,7,50,6,1045.81982421875,549.131469726562,0,1,faces,female,0,1,faces,A,female,VS,F,145,E04,604.888671875
0,1,0,26733,2.484375,0.16796875,7,0,5,40,8,947.938293457031,455.641937255859,0,1,faces,female,0,1,faces,A,female,VS,F,145,E04,604.888671875
0,1,0,26734,2.693359375,0.201171875,8,0,10,64,9,1274.04931640625,153.356460571289,0,1,faces,female,0,1,faces,A,female,VS,F,145,E04,604.888671875
0,1,0,26736,3.103515625,0.12109375,9,0,1,6,11,553.091735839844,676.0625,0,1,faces,female,0,1,faces,A,female,VS,F,145,E04,604.888671875
2,1,0,26737,3.271484375,0.123046875,10,0,15,77,12,1381.6806640625,586.712036132812,0,1,faces,male,0,1,faces,A,female,VS,F,145,E04,604.888671875
0,1,0,26751,0.25390625,0.234375,1,1,7,42,3,957.321166992188,620.697082519531,0,1,faces,female,0,1,objects,A,small,VS,O,146,E04,609.087890625
0,1,0,26754,0.966796875,0.1171875,2,1,14,76,6,1403.46813964844,477.234497070312,0,1,faces,male,0,1,objects,A,small,VS,O,146,E04,609.087890625
0,1,1,26755,1.109375,0.12109375,3,1,13,75,7,1409.52893066406,366.798828125,0,1,objects,small,0,1,objects,A,small,VS,O,146,E04,609.087890625
0,1,0,26757,1.3984375,0.236328125,4,1,6,39,9,924.490905761719,303.18994140625,0,1,faces,male,0,1,objects,A,small,VS,O,146,E04,609.087890625
0,1,0,26758,1.677734375,0.26953125,5,0,5,37,10,974.920654296875,145.184448242188,0,1,objects,small,0,1,objects,A,small,VS,O,146,E04,609.087890625
0,1,0,26764,3.1640625,0.1328125,6,0,3,30,16,822.303955078125,293.418792724609,0,1,objects,small,0,1,objects,A,small,VS,O,146,E04,609.087890625
0,1,0,26773,0.24609375,0.150390625,1,1,12,55,1,1208.23889160156,97.6007995605469,0,1,faces,female,0,1,faces,P,female,VS,F,147,E04,613.287109375
0,1,0,26774,0.265625,0.134765625,1,1,12,73,1,1314.20227050781,162.216934204102,0,1,faces,female,0,1,faces,P,male,VS,F,148,E04,617.486328125
0,1,0,26791,0.193359375,0.220703125,1,1,8,41,2,989.227661132812,565.803100585938,0,1,faces,male,1,1,objects,P,small,VS,O,149,E04,621.685546875
0,1,0,26792,0.435546875,0.19921875,2,1,9,42,3,938.429443359375,667.365661621094,0,1,objects,small,1,1,objects,P,small,VS,O,149,E04,621.685546875
0,1,0,26793,0.671875,0.19140625,3,1,6,35,4,827.508117675781,833.975769042969,0,1,faces,male,1,1,objects,P,small,VS,O,149,E04,621.685546875
0,1,0,26794,0.8984375,0.130859375,4,1,4,27,5,757.130676269531,975.045227050781,1,0,NaN,NaN,1,1,objects,P,small,VS,O,149,E04,621.685546875
0,1,1,26806,0.66796875,0.103515625,1,1,10,48,3,1102.61315917969,368.612640380859,0,1,objects,small,1,1,objects,P,big,VS,O,150,E04,625.884765625
0,0,0,26808,1.076171875,0.220703125,2,1,13,58,5,1117.06408691406,420.342742919922,1,0,NaN,NaN,1,1,objects,P,big,VS,O,150,E04,625.884765625
0,1,0,26820,0.8359375,0.20703125,1,1,3,18,4,642.705688476562,900.091918945312,0,1,faces,male,0,1,objects,A,big,EX,O,152,E04,634.283203125
0,1,0,26821,1.06640625,0.431640625,2,1,5,27,5,748.646362304688,908.233154296875,0,1,objects,big,0,1,objects,A,big,EX,O,152,E04,634.283203125
0,1,0,26822,1.533203125,0.322265625,3,1,9,54,6,1049.04760742188,894.545715332031,0,1,faces,male,0,1,objects,A,big,EX,O,152,E04,634.283203125
0,1,0,26823,1.8828125,0.30078125,4,1,13,71,7,1283.80090332031,879.124877929688,0,1,objects,small,0,1,objects,A,big,EX,O,152,E04,634.283203125
0,1,0,26826,2.5625,0.27734375,5,0,11,61,10,1164.43469238281,706.152709960938,0,1,faces,female,0,1,objects,A,big,EX,O,152,E04,634.283203125
0,1,1,26829,3.455078125,0.177734375,6,0,10,57,13,1168.36474609375,318.541564941406,0,1,faces,female,0,1,objects,A,big,EX,O,152,E04,634.283203125
0,1,1,26841,0.236328125,0.1484375,1,1,5,31,2,853.286376953125,412.951904296875,0,1,faces,female,0,1,faces,A,male,EX,F,153,E04,638.482421875
0,1,0,26843,0.708984375,0.19140625,2,1,2,7,4,559.256591796875,781.099182128906,0,1,objects,big,0,1,faces,A,male,EX,F,153,E04,638.482421875
0,1,0,26845,1.501953125,0.18359375,3,1,7,61,6,1130.48767089844,706.194580078125,0,1,faces,male,0,1,faces,A,male,EX,F,153,E04,638.482421875
0,1,1,26846,1.720703125,0.177734375,4,1,4,26,7,744.762023925781,812.794067382812,0,1,objects,small,0,1,faces,A,male,EX,F,153,E04,638.482421875
0,1,1,26848,2.16015625,0.171875,5,0,10,66,9,1263.18713378906,355.890350341797,0,1,faces,male,0,1,faces,A,male,EX,F,153,E04,638.482421875
0,1,1,26850,2.595703125,0.251953125,6,0,14,74,11,1338.34729003906,226.359802246094,0,1,faces,male,0,1,faces,A,male,EX,F,153,E04,638.482421875
0,1,0,26852,3.02734375,0.236328125,7,0,9,64,13,1217.49304199219,118.840927124023,0,1,faces,male,0,1,faces,A,male,EX,F,153,E04,638.482421875
0,1,0,26864,1.37890625,0.29296875,1,1,8,36,2,846.946655273438,915.396789550781,0,1,objects,small,0,1,faces,A,female,EX,F,154,E04,642.681640625
0,1,0,26866,1.865234375,0.291015625,2,1,15,70,4,1243.23303222656,701.290771484375,0,1,faces,male,0,1,faces,A,female,EX,F,154,E04,642.681640625
0,1,0,26868,2.375,0.19140625,3,1,12,58,6,1120.896484375,430.529510498047,0,1,objects,big,0,1,faces,A,female,EX,F,154,E04,642.681640625
0,1,0,26869,2.59375,1.951171875,4,1,9,41,7,933.184326171875,496.0537109375,0,1,faces,male,0,1,faces,A,female,EX,F,154,E04,642.681640625
0,1,1,26878,0.689453125,0.171875,1,1,3,12,4,623.965087890625,309.477752685547,1,0,NaN,NaN,1,1,faces,P,male,VS,F,155,E04,646.880859375
0,0,0,26881,2.197265625,0.15625,2,1,11,62,7,1126.86047363281,840.739379882812,0,1,objects,small,1,1,faces,P,male,VS,F,155,E04,646.880859375
0,1,1,26886,3.654296875,0.1640625,1,1,12,65,1,1310.16442871094,220.893676757812,0,1,faces,male,0,1,faces,A,female,VS,I,160,E04,667.876953125
0,1,0,26891,0.33203125,0.208984375,1,1,5,32,2,877.852905273438,578.743225097656,0,1,objects,small,1,1,faces,P,female,VS,I,161,E04,672.076171875
0,1,1,26893,0.943359375,0.162109375,2,1,8,51,4,1102.74816894531,670.383483886719,0,1,faces,female,1,1,faces,P,female,VS,I,161,E04,672.076171875
0,1,0,26895,1.302734375,0.13671875,3,1,10,60,6,1165.74670410156,646.153564453125,0,1,faces,female,1,1,faces,P,female,VS,I,161,E04,672.076171875
1,1,0,26896,1.474609375,0.1875,4,1,14,67,7,1247.78503417969,432.007934570312,1,0,NaN,NaN,1,1,faces,P,female,VS,I,161,E04,672.076171875
0,1,1,26897,1.69140625,0.154296875,5,0,13,65,8,1277.98095703125,246.208312988281,0,1,faces,male,1,1,faces,P,female,VS,I,161,E04,672.076171875
0,1,0,26899,2.048828125,0.373046875,6,0,9,56,10,1161.29748535156,248.270736694336,0,1,faces,male,1,1,faces,P,female,VS,I,161,E04,672.076171875
0,1,0,26900,2.474609375,0.23828125,7,0,2,13,11,624.411682128906,415.034973144531,0,1,objects,big,1,1,faces,P,female,VS,I,161,E04,672.076171875
