refix,pretarget,multifix,urevent,tonset,dur_added,rank,first_rank,stposrel,stposabs,n,x,y,istarget,isdistractor,distractor_cat,ditractor_atr,trial_targetseen,trial_correct,trial_cat,trial_resp,trial_atr,trial_type,trial_cattype,trial_number,trial_subject,trial_bgn_latency
0,1,0,23073,0.294921875,0.119140625,1,1,15,68,1,1265.69677734375,516.471252441406,0,1,objects,big,1,1,faces,P,female,VS,F,1,E05,0.201171875
0,1,0,23075,0.62890625,0.240234375,2,1,3,13,3,653.833251953125,427.912353515625,0,1,faces,male,1,1,faces,P,female,VS,F,1,E05,0.201171875
0,1,0,23077,1.06640625,0.19921875,3,1,2,6,5,549.543029785156,645.644348144531,0,1,faces,male,1,1,faces,P,female,VS,F,1,E05,0.201171875
0,1,0,23078,1.31640625,0.220703125,4,1,4,15,6,671.090148925781,637.737365722656,0,1,faces,female,1,1,faces,P,female,VS,F,1,E05,0.201171875
1,1,0,23079,1.587890625,0.1953125,5,0,6,25,7,754.850463867188,743.513061523438,1,0,NaN,NaN,1,1,faces,P,female,VS,F,1,E05,0.201171875
0,1,1,23084,2.453125,0.109375,6,0,1,3,12,553.034545898438,332.002471923828,0,1,faces,male,1,1,faces,P,female,VS,F,1,E05,0.201171875
0,1,1,23087,2.91015625,0.19140625,7,0,10,37,15,960.407348632812,100.593719482422,0,1,faces,male,1,1,faces,P,female,VS,F,1,E05,0.201171875
0,1,0,23088,3.150390625,0.130859375,8,0,14,46,16,1087.22106933594,109.582618713379,0,1,faces,female,1,1,faces,P,female,VS,F,1,E05,0.201171875
0,1,1,23089,3.361328125,0.123046875,9,0,13,45,17,926.23486328125,917.552429199219,0,1,faces,female,1,1,faces,P,female,VS,F,1,E05,0.201171875
2,1,1,23091,3.771484375,0.1171875,10,0,6,25,19,783.520812988281,752.014343261719,1,0,NaN,NaN,1,1,faces,P,female,VS,F,1,E05,0.201171875
0,1,0,23112,0.24609375,0.251953125,1,1,7,41,1,940.838562011719,529.871337890625,0,1,faces,male,1,1,faces,P,male,VS,I,2,E05,4.400390625
0,1,0,23113,0.556640625,0.162109375,2,1,4,14,2,638.741638183594,535.236389160156,0,1,objects,big,1,1,faces,P,male,VS,I,2,E05,4.400390625
0,1,0,23114,0.775390625,0.185546875,3,1,5,25,3,723.580261230469,762.073547363281,0,1,objects,big,1,1,faces,P,male,VS,I,2,E05,4.400390625
0,1,0,23116,1.177734375,0.17578125,4,1,9,56,5,1164.36730957031,249.487609863281,0,1,objects,small,1,1,faces,P,male,VS,I,2,E05,4.400390625
0,1,0,23117,1.39453125,0.197265625,5,0,10,64,6,1248.2802734375,171.180999755859,0,1,objects,small,1,1,faces,P,male,VS,I,2,E05,4.400390625
0,1,0,23118,1.654296875,0.1484375,6,0,12,66,7,1274.79919433594,334.161712646484,0,1,faces,male,1,1,faces,P,male,VS,I,2,E05,4.400390625
0,1,1,23119,1.876953125,0.1015625,7,0,3,12,8,645.873474121094,369.636016845703,0,1,faces,female,1,1,faces,P,male,VS,I,2,E05,4.400390625
0,1,0,23121,2.3828125,0.24609375,8,0,1,1,10,566.09912109375,131.641448974609,0,1,faces,female,1,1,faces,P,male,VS,I,2,E05,4.400390625
1,0,0,23124,3.0390625,0.21875,9,0,13,71,13,1256.96520996094,873.357360839844,1,0,NaN,NaN,1,1,faces,P,male,VS,I,2,E05,4.400390625
0,0,1,23125,3.291015625,0.212890625,10,0,14,79,14,1362.08190917969,759.220153808594,0,1,faces,female,1,1,faces,P,male,VS,I,2,E05,4.400390625
2,0,1,23127,3.662109375,0.10546875,11,0,13,71,16,1244.46313476562,885.345764160156,1,0,NaN,NaN,1,1,faces,P,male,VS,I,2,E05,4.400390625
0,1,0,23142,0.263671875,0.1484375,1,1,11,61,1,1162.24719238281,755.170166015625,0,1,faces,male,0,1,faces,A,male,VS,I,3,E05,8.599609375
0,1,1,23143,0.4453125,0.12890625,2,1,10,51,2,1078.72912597656,676.609741210938,0,1,faces,male,0,1,faces,A,male,VS,I,3,E05,8.599609375
0,1,0,23145,0.767578125,0.193359375,3,1,4,17,4,621.947082519531,867.880126953125,0,1,faces,female,0,1,faces,A,male,VS,I,3,E05,8.599609375
0,1,0,23146,1.017578125,0.251953125,4,1,7,36,5,829.748840332031,948.80517578125,0,1,objects,small,0,1,faces,A,male,VS,I,3,E05,8.599609375
0,1,0,23147,1.333984375,0.10546875,5,0,15,81,6,1320.49865722656,971.401794433594,0,1,objects,small,0,1,faces,A,male,VS,I,3,E05,8.599609375
0,1,0,23148,1.47265625,0.1328125,6,0,14,72,7,1270.86181640625,970.978759765625,0,1,faces,female,0,1,faces,A,male,VS,I,3,E05,8.599609375
1,1,0,23150,1.83984375,0.20703125,7,0,9,48,9,1033.64685058594,317.187347412109,0,1,faces,female,0,1,faces,A,male,VS,I,3,E05,8.599609375
0,1,1,23152,2.18359375,0.1328125,8,0,12,64,11,1255.15283203125,144.830154418945,0,1,faces,male,0,1,faces,A,male,VS,I,3,E05,8.599609375
0,1,1,23156,2.775390625,0.115234375,9,0,2,2,15,555.209167480469,198.572113037109,0,1,objects,big,0,1,faces,A,male,VS,I,3,E05,8.599609375
0,1,0,23157,2.943359375,0.220703125,10,0,1,1,16,563.406799316406,114.461936950684,0,1,faces,female,0,1,faces,A,male,VS,I,3,E05,8.599609375
0,1,0,23158,3.220703125,0.1171875,11,0,5,20,17,764.371215820312,263.505401611328,0,1,objects,big,0,1,faces,A,male,VS,I,3,E05,8.599609375
0,1,0,23160,3.529296875,0.14453125,12,0,8,40,19,955.40478515625,412.031494140625,0,1,faces,male,0,1,faces,A,male,VS,I,3,E05,8.599609375
2,1,0,23161,3.7265625,0.142578125,13,0,9,48,20,1063.85314941406,326.394104003906,0,1,faces,female,0,1,faces,A,male,VS,I,3,E05,8.599609375
0,1,0,23162,3.931640625,0.111328125,14,0,6,23,21,763.243530273438,497.617248535156,0,1,faces,female,0,1,faces,A,male,VS,I,3,E05,8.599609375
0,1,0,23177,0.28515625,0.228515625,1,1,2,15,1,612.119750976562,613.821044921875,0,1,faces,male,0,1,faces,A,female,VS,F,4,E05,12.798828125
0,1,1,23178,0.578125,0.115234375,2,1,8,50,2,1074.16528320312,565.7919921875,0,1,faces,male,0,1,faces,A,female,VS,F,4,E05,12.798828125
0,1,1,23181,1.0703125,0.123046875,3,1,3,21,5,767.180053710938,337.794555664062,0,1,faces,female,0,1,faces,A,female,VS,F,4,E05,12.798828125
0,1,0,23183,1.388671875,0.16796875,4,1,6,30,7,853.098754882812,317.318603515625,0,1,faces,female,0,1,faces,A,female,VS,F,4,E05,12.798828125
0,1,1,23184,1.611328125,0.111328125,5,0,4,28,8,842.328369140625,159.447082519531,0,1,faces,female,0,1,faces,A,female,VS,F,4,E05,12.798828125
1,1,1,23186,1.974609375,0.28515625,6,0,13,65,10,1230.99072265625,204.478088378906,0,1,faces,female,0,1,faces,A,female,VS,F,4,E05,12.798828125
0,1,0,23188,2.6015625,0.20703125,7,0,11,62,12,1141.98522949219,855.836181640625,0,1,objects,big,0,1,faces,A,female,VS,F,4,E05,12.798828125
0,1,1,23189,2.857421875,0.169921875,8,0,12,63,13,1179.76623535156,966.928955078125,0,1,faces,female,0,1,faces,A,female,VS,F,4,E05,12.798828125
2,1,1,23191,3.189453125,0.146484375,9,0,13,65,15,1282.94812011719,241.219375610352,0,1,faces,female,0,1,faces,A,female,VS,F,4,E05,12.798828125
0,1,0,23208,0.318359375,0.24609375,1,1,7,38,1,992.343078613281,205.114639282227,0,1,faces,male,0,0,objects,A,big,EX,O,5,E05,16.998046875
1,1,0,23209,0.630859375,0.123046875,2,1,5,19,2,735.1220703125,132.445449829102,0,1,faces,female,0,0,objects,A,big,EX,O,5,E05,16.998046875
0,1,0,23210,0.802734375,0.224609375,3,1,2,10,3,657.24267578125,112.078880310059,0,1,objects,small,0,0,objects,A,big,EX,O,5,E05,16.998046875
0,1,0,23211,1.08203125,0.15625,4,1,1,1,4,590.493957519531,118.105422973633,0,1,faces,female,0,0,objects,A,big,EX,O,5,E05,16.998046875
2,1,0,23212,1.294921875,0.2265625,5,0,5,19,5,775.951782226562,126.19319152832,0,1,faces,female,0,0,objects,A,big,EX,O,5,E05,16.998046875
0,1,0,23213,1.58203125,0.146484375,6,0,8,46,6,1068.53344726562,177.964309692383,0,1,faces,female,0,0,objects,A,big,EX,O,5,E05,16.998046875
0,1,0,23215,1.884765625,0.23828125,7,0,13,66,8,1279.06945800781,324.72705078125,0,1,faces,male,0,0,objects,A,big,EX,O,5,E05,16.998046875
0,1,0,23216,2.1953125,0.125,8,0,3,14,9,668.051940917969,576.195983886719,0,1,objects,big,0,0,objects,A,big,EX,O,5,E05,16.998046875
0,1,0,23217,2.3515625,0.21875,9,0,4,15,10,662.092224121094,612.980041503906,0,1,objects,small,0,0,objects,A,big,EX,O,5,E05,16.998046875
0,1,1,23218,2.64453125,0.150390625,10,0,10,53,11,1071.49853515625,864.92236328125,0,1,faces,female,0,0,objects,A,big,EX,O,5,E05,16.998046875
0,1,0,23220,3.0703125,0.185546875,11,0,11,54,13,1063.02319335938,962.787109375,0,1,objects,big,0,0,objects,A,big,EX,O,5,E05,16.998046875
0,1,0,23221,3.310546875,0.224609375,12,0,14,72,14,1258.83203125,970.272766113281,0,1,faces,male,0,0,objects,A,big,EX,O,5,E05,16.998046875
0,1,1,23222,3.595703125,0.212890625,13,0,15,80,15,1384.63879394531,838.372680664062,0,1,faces,male,0,0,objects,A,big,EX,O,5,E05,16.998046875
0,1,0,23246,0.23046875,0.189453125,1,1,8,32,1,852.073547363281,518.161560058594,0,1,objects,small,0,1,faces,A,female,EX,F,6,E05,21.197265625
1,1,0,23247,0.482421875,0.205078125,2,1,5,13,2,613.157897949219,439.961822509766,0,1,faces,male,0,1,faces,A,female,EX,F,6,E05,21.197265625
0,1,1,23248,0.751953125,0.189453125,3,1,6,17,3,621.318176269531,823.948425292969,0,1,objects,big,0,1,faces,A,female,EX,F,6,E05,21.197265625
0,1,0,23250,1.224609375,0.1796875,4,1,11,43,5,969.807983398438,764.384948730469,0,1,faces,female,0,1,faces,A,female,EX,F,6,E05,21.197265625
0,1,1,23252,1.580078125,0.154296875,5,0,15,73,7,1385.40185546875,136.088073730469,0,1,objects,small,0,1,faces,A,female,EX,F,6,E05,21.197265625
0,1,1,23254,2.1640625,0.28515625,6,0,4,10,9,645.786987304688,111.733772277832,0,1,objects,small,0,1,faces,A,female,EX,F,6,E05,21.197265625
0,1,0,23256,2.63671875,0.20703125,7,0,9,37,11,971.674377441406,149.707382202148,0,1,faces,female,0,1,faces,A,female,EX,F,6,E05,21.197265625
0,1,0,23257,2.896484375,0.1328125,8,0,12,47,12,1052.73083496094,247.994018554688,0,1,faces,female,0,1,faces,A,female,EX,F,6,E05,21.197265625
0,1,0,23258,3.095703125,0.123046875,9,0,1,4,13,587.34716796875,458.334777832031,0,1,faces,male,0,1,faces,A,female,EX,F,6,E05,21.197265625
2,1,0,23259,3.267578125,0.1484375,10,0,5,13,14,659.547241210938,438.596099853516,0,1,faces,male,0,1,faces,A,female,EX,F,6,E05,21.197265625
0,1,0,23260,3.490234375,0.158203125,11,0,2,6,15,556.72119140625,654.699340820312,0,1,faces,male,0,1,faces,A,female,EX,F,6,E05,21.197265625
1,1,0,23278,0.220703125,0.10546875,1,1,6,25,1,750.796508789062,746.707824707031,0,1,objects,big,1,1,faces,P,female,VS,F,7,E05,25.396484375
1,0,0,23279,0.361328125,0.529296875,2,1,8,34,2,851.421142578125,745.141418457031,1,0,NaN,NaN,1,1,faces,P,female,VS,F,7,E05,25.396484375
0,0,0,23281,1.091796875,0.17578125,3,1,4,22,4,768.761291503906,413.832824707031,0,1,faces,male,1,1,faces,P,female,VS,F,7,E05,25.396484375
0,0,0,23284,1.626953125,0.2578125,4,1,14,73,7,1350.1689453125,128.361083984375,0,1,faces,female,1,1,faces,P,female,VS,F,7,E05,25.396484375
0,0,0,23286,2.099609375,0.12890625,5,0,10,48,9,1065.31628417969,315.096221923828,0,1,faces,female,1,1,faces,P,female,VS,F,7,E05,25.396484375
0,0,0,23287,2.287109375,0.162109375,6,0,9,46,10,1054.05236816406,131.448364257812,0,1,faces,male,1,1,faces,P,female,VS,F,7,E05,25.396484375
0,0,0,23288,2.525390625,0.205078125,7,0,13,67,11,1274.61364746094,443.725494384766,0,1,objects,big,1,1,faces,P,female,VS,F,7,E05,25.396484375
2,0,0,23289,2.80859375,0.1171875,8,0,6,25,12,792.048400878906,748.306762695312,0,1,objects,big,1,1,faces,P,female,VS,F,7,E05,25.396484375
2,0,0,23290,2.95703125,0.212890625,9,0,8,34,13,837.707397460938,743.925537109375,1,0,NaN,NaN,1,1,faces,P,female,VS,F,7,E05,25.396484375
3,0,0,23291,3.21875,0.287109375,10,0,6,25,14,729.492431640625,744.313720703125,0,1,objects,big,1,1,faces,P,female,VS,F,7,E05,25.396484375
0,0,0,23292,3.564453125,0.296875,11,0,3,15,15,629.864929199219,650.216125488281,0,1,objects,small,1,1,faces,P,female,VS,F,7,E05,25.396484375
3,0,0,23293,3.916015625,0.4921875,12,0,8,34,16,828.839599609375,749.525085449219,1,0,NaN,NaN,1,1,faces,P,female,VS,F,7,E05,25.396484375
0,1,0,23312,0.505859375,0.1484375,1,1,6,24,2,756.244689941406,638.133361816406,0,1,objects,small,0,1,faces,A,female,VS,I,8,E05,29.595703125
1,1,1,23313,0.71484375,0.119140625,2,1,8,31,3,867.9599609375,450.438446044922,0,1,faces,male,0,1,faces,A,female,VS,I,8,E05,29.595703125
0,1,0,23315,1.046875,0.177734375,3,1,5,19,5,798.209228515625,135.552749633789,0,1,faces,male,0,1,faces,A,female,VS,I,8,E05,29.595703125
0,1,0,23316,1.2578125,0.296875,4,1,7,28,6,855.19873046875,136.171859741211,0,1,faces,female,0,1,faces,A,female,VS,I,8,E05,29.595703125
0,1,0,23318,1.892578125,0.12890625,5,0,15,79,8,1405.99938964844,746.385131835938,0,1,faces,female,0,1,faces,A,female,VS,I,8,E05,29.595703125
0,1,1,23319,2.08203125,0.126953125,6,0,11,53,9,1107.96008300781,886.99951171875,0,1,faces,male,0,1,faces,A,female,VS,I,8,E05,29.595703125
0,1,0,23321,2.421875,0.103515625,7,0,13,63,11,1189.271484375,957.115417480469,0,1,faces,male,0,1,faces,A,female,VS,I,8,E05,29.595703125
0,1,0,23322,2.6015625,0.23046875,8,0,3,13,12,613.281860351562,437.741912841797,0,1,faces,female,0,1,faces,A,female,VS,I,8,E05,29.595703125
0,1,0,23325,3.154296875,0.224609375,9,0,14,73,15,1316.83020019531,134.384613037109,0,1,faces,male,0,1,faces,A,female,VS,I,8,E05,29.595703125
0,1,0,23327,3.607421875,0.126953125,10,0,1,7,17,530.978271484375,726.443237304688,0,1,objects,big,0,1,faces,A,female,VS,I,8,E05,29.595703125
2,1,0,23329,3.931640625,0.47265625,11,0,8,31,19,841.321716308594,416.815856933594,0,1,faces,male,0,1,faces,A,female,VS,I,8,E05,29.595703125
1,1,0,23349,0.359375,0.138671875,1,1,5,33,2,888.640808105469,608.472839355469,0,1,faces,female,0,1,objects,A,big,VS,O,9,E05,33.794921875
1,1,0,23350,0.560546875,0.140625,2,1,2,13,3,689.258056640625,464.350952148438,0,1,objects,big,0,1,objects,A,big,VS,O,9,E05,33.794921875
0,1,0,23352,0.91015625,0.12109375,3,1,3,16,5,640.716064453125,744.595336914062,0,1,faces,male,0,1,objects,A,big,VS,O,9,E05,33.794921875
0,1,0,23353,1.0859375,0.15625,4,1,4,27,6,732.271362304688,922.034362792969,0,1,objects,small,0,1,objects,A,big,VS,O,9,E05,33.794921875
1,1,0,23356,1.6171875,0.232421875,5,0,6,37,9,960.642028808594,127.858154296875,0,1,objects,big,0,1,objects,A,big,VS,O,9,E05,33.794921875
0,1,0,23357,1.9140625,0.220703125,6,0,15,76,10,1356.59301757812,418.990447998047,0,1,faces,female,0,1,objects,A,big,VS,O,9,E05,33.794921875
2,1,0,23360,2.462890625,0.16015625,7,0,2,13,13,675.406677246094,439.213989257812,0,1,objects,big,0,1,objects,A,big,VS,O,9,E05,33.794921875
2,1,1,23361,2.69140625,0.115234375,8,0,5,33,14,863.679443359375,606.122619628906,0,1,faces,female,0,1,objects,A,big,VS,O,9,E05,33.794921875
0,1,0,23363,2.95703125,0.185546875,9,0,7,41,16,970.336181640625,535.776916503906,0,1,faces,female,0,1,objects,A,big,VS,O,9,E05,33.794921875
0,1,0,23364,3.208984375,0.1171875,10,0,1,6,17,556.221008300781,640.423095703125,0,1,faces,female,0,1,objects,A,big,VS,O,9,E05,33.794921875
0,1,0,23366,3.59375,0.171875,11,0,9,55,19,1132.59130859375,128.911544799805,0,1,faces,male,0,1,objects,A,big,VS,O,9,E05,33.794921875
2,1,0,23367,3.82421875,0.138671875,12,0,6,37,20,918.767028808594,121.300354003906,0,1,objects,big,0,1,objects,A,big,VS,O,9,E05,33.794921875
0,1,1,23384,0.41015625,0.119140625,1,1,3,14,2,636.45263671875,496.896057128906,0,1,faces,male,0,1,faces,A,male,VS,F,10,E05,37.994140625
0,1,0,23386,0.724609375,0.1953125,2,1,1,5,4,531.387390136719,540.601379394531,0,1,faces,male,0,1,faces,A,male,VS,F,10,E05,37.994140625
0,1,0,23387,0.994140625,0.142578125,3,1,2,7,5,525.0166015625,760.133483886719,0,1,faces,male,0,1,faces,A,male,VS,F,10,E05,37.994140625
0,1,1,23388,1.197265625,0.12109375,4,1,7,52,6,1017.87725830078,740.083923339844,0,1,objects,big,0,1,faces,A,male,VS,F,10,E05,37.994140625
0,1,0,23390,1.494140625,0.18359375,5,0,10,60,8,1168.44409179688,657.914001464844,0,1,faces,female,0,1,faces,A,male,VS,F,10,E05,37.994140625
0,1,0,23391,1.734375,0.1953125,6,0,14,78,9,1363.08032226562,628.096496582031,0,1,faces,female,0,1,faces,A,male,VS,F,10,E05,37.994140625
0,1,0,23392,1.951171875,0.140625,7,0,13,77,10,1341.04309082031,526.926147460938,0,1,faces,female,0,1,faces,A,male,VS,F,10,E05,37.994140625
0,1,0,23393,2.14453125,0.166015625,8,0,9,59,11,1157.14392089844,518.72998046875,0,1,faces,male,0,1,faces,A,male,VS,F,10,E05,37.994140625
1,1,0,23395,2.509765625,0.12890625,9,0,4,39,13,971.111206054688,315.801605224609,0,1,faces,male,0,1,faces,A,male,VS,F,10,E05,37.994140625
0,1,0,23396,2.685546875,0.1796875,10,0,6,47,14,1048.97155761719,236.002716064453,0,1,faces,male,0,1,faces,A,male,VS,F,10,E05,37.994140625
2,1,0,23397,2.919921875,0.228515625,11,0,4,39,15,944.739807128906,340.670745849609,0,1,faces,male,0,1,faces,A,male,VS,F,10,E05,37.994140625
0,1,0,23399,3.384765625,0.1484375,12,0,12,72,17,1276.75354003906,970.525573730469,0,1,faces,female,0,1,faces,A,male,VS,F,10,E05,37.994140625
0,1,0,23400,3.572265625,0.3828125,13,0,15,80,18,1362.81884765625,865.8037109375,0,1,objects,big,0,1,faces,A,male,VS,F,10,E05,37.994140625
1,1,0,23415,0.216796875,0.12109375,1,1,5,32,1,843.148010253906,555.231994628906,0,1,faces,male,0,1,objects,A,small,VS,O,11,E05,42.193359375
1,1,0,23416,0.400390625,0.15234375,2,1,2,6,2,523.271606445312,674.746032714844,0,1,faces,male,0,1,objects,A,small,VS,O,11,E05,42.193359375
0,1,0,23417,0.626953125,0.166015625,3,1,1,2,3,566.122802734375,209.82470703125,0,1,faces,male,0,1,objects,A,small,VS,O,11,E05,42.193359375
0,1,0,23418,0.861328125,0.212890625,4,1,7,37,4,968.101806640625,162.91975402832,0,1,faces,male,0,1,objects,A,small,VS,O,11,E05,42.193359375
0,1,0,23420,1.31640625,0.115234375,5,0,9,44,6,962.067504882812,841.489929199219,0,1,faces,female,0,1,objects,A,small,VS,O,11,E05,42.193359375
1,1,0,23422,1.59765625,0.12109375,6,0,11,51,8,1055.52746582031,638.537292480469,0,1,objects,big,0,1,objects,A,small,VS,O,11,E05,42.193359375
0,1,0,23423,1.779296875,0.19140625,7,0,15,81,9,1360.43273925781,963.57861328125,0,1,faces,male,0,1,objects,A,small,VS,O,11,E05,42.193359375
0,1,0,23424,2.041015625,0.111328125,8,0,6,33,10,888.509460449219,611.58984375,0,1,objects,small,0,1,objects,A,small,VS,O,11,E05,42.193359375
2,1,0,23425,2.181640625,0.18359375,9,0,5,32,11,834.599304199219,584.571533203125,0,1,faces,male,0,1,objects,A,small,VS,O,11,E05,42.193359375
0,1,0,23426,2.439453125,0.212890625,10,0,3,8,12,519.354919433594,852.021545410156,0,1,objects,big,0,1,objects,A,small,VS,O,11,E05,42.193359375
2,1,1,23427,2.712890625,0.138671875,11,0,2,6,13,512.801513671875,654.706176757812,0,1,faces,male,0,1,objects,A,small,VS,O,11,E05,42.193359375
0,1,0,23429,3.2890625,0.19140625,12,0,4,31,15,866.579650878906,436.269836425781,0,1,faces,female,0,1,objects,A,small,VS,O,11,E05,42.193359375
3,1,0,23430,3.53125,0.203125,13,0,5,32,16,847.808044433594,527.199096679688,0,1,faces,male,0,1,objects,A,small,VS,O,11,E05,42.193359375
2,1,0,23431,3.791015625,0.203125,14,0,11,51,17,1064.27319335938,614.418579101562,0,1,objects,big,0,1,objects,A,small,VS,O,11,E05,42.193359375
0,1,0,23447,0.580078125,0.1171875,1,1,8,53,3,1027.75048828125,829.190734863281,0,1,faces,male,1,1,faces,P,female,VS,F,12,E05,46.392578125
0,1,0,23448,0.763671875,0.14453125,2,1,4,8,4,541.468383789062,833.268310546875,0,1,faces,female,1,1,faces,P,female,VS,F,12,E05,46.392578125
0,1,0,23449,0.96875,0.11328125,3,1,3,6,5,561.913513183594,624.317443847656,0,1,faces,female,1,1,faces,P,female,VS,F,12,E05,46.392578125
0,1,0,23450,1.13671875,0.15234375,4,1,2,4,6,554.160827636719,439.949066162109,0,1,faces,male,1,1,faces,P,female,VS,F,12,E05,46.392578125
0,1,0,23451,1.35546875,0.109375,5,0,1,1,7,563.520935058594,131.094650268555,0,1,faces,male,1,1,faces,P,female,VS,F,12,E05,46.392578125
1,0,1,23453,1.67578125,0.25390625,6,0,10,64,9,1260.12426757812,135.970657348633,1,0,NaN,NaN,1,1,faces,P,female,VS,F,12,E05,46.392578125
2,0,0,23455,2.119140625,0.494140625,7,0,10,64,11,1254.9892578125,124.226013183594,1,0,NaN,NaN,1,1,faces,P,female,VS,F,12,E05,46.392578125
0,0,1,23456,2.685546875,0.123046875,8,0,12,75,12,1366.26635742188,347.623291015625,0,1,faces,female,1,1,faces,P,female,VS,F,12,E05,46.392578125
0,0,0,23458,2.99609375,0.181640625,9,0,13,76,14,1349.68408203125,433.680541992188,0,1,objects,big,1,1,faces,P,female,VS,F,12,E05,46.392578125
0,0,0,23459,3.244140625,0.255859375,10,0,6,31,15,843.264282226562,425.677673339844,0,1,objects,small,1,1,faces,P,female,VS,F,12,E05,46.392578125
0,0,0,23460,3.5546875,0.236328125,11,0,7,41,16,955.11181640625,532.764465332031,0,1,objects,small,1,1,faces,P,female,VS,F,12,E05,46.392578125
0,0,0,23461,3.85546875,0.154296875,12,0,11,72,17,1280.75769042969,948.155883789062,0,1,objects,small,1,1,faces,P,female,VS,F,12,E05,46.392578125
1,1,0,23479,0.3359375,0.109375,1,1,4,21,2,791.733703613281,331.021942138672,0,1,objects,big,1,1,objects,P,small,VS,O,13,E05,50.591796875
1,1,0,23480,0.49609375,0.107421875,2,1,6,29,3,828.7099609375,236.708984375,0,1,faces,female,1,1,objects,P,small,VS,O,13,E05,50.591796875
0,1,0,23481,0.6640625,0.154296875,3,1,1,3,4,547.102661132812,329.0693359375,0,1,objects,small,1,1,objects,P,small,VS,O,13,E05,50.591796875
0,1,0,23484,1.181640625,0.177734375,4,1,7,35,7,853.653747558594,868.411254882812,0,1,faces,male,1,1,objects,P,small,VS,O,13,E05,50.591796875
0,1,1,23485,1.41015625,0.169921875,5,0,10,45,8,970.988891601562,941.769836425781,1,0,NaN,NaN,1,1,objects,P,small,VS,O,13,E05,50.591796875
0,0,0,23488,2.216796875,0.125,6,0,12,61,11,1151.72155761719,764.69970703125,0,1,faces,male,1,1,objects,P,small,VS,O,13,E05,50.591796875
0,0,0,23489,2.400390625,0.232421875,7,0,13,68,12,1268.70361328125,507.415130615234,0,1,faces,male,1,1,objects,P,small,VS,O,13,E05,50.591796875
2,0,0,23491,2.89453125,0.2109375,8,0,6,29,14,847.213256835938,213.459732055664,0,1,faces,female,1,1,objects,P,small,VS,O,13,E05,50.591796875
0,0,0,23493,3.314453125,0.21484375,9,0,9,40,16,954.230590820312,421.512725830078,0,1,objects,big,1,1,objects,P,small,VS,O,13,E05,50.591796875
2,0,0,23495,3.8359375,0.478515625,10,0,4,21,18,748.307861328125,317.897644042969,0,1,objects,big,1,1,objects,P,small,VS,O,13,E05,50.591796875
1,1,0,23516,0.41015625,0.1640625,1,1,8,57,2,1132.16760253906,343.093109130859,0,1,objects,small,1,0,objects,P,big,VS,O,14,E05,54.791015625
0,1,0,23517,0.6328125,0.16796875,2,1,5,29,3,866.355407714844,232.131103515625,0,1,faces,female,1,0,objects,P,big,VS,O,14,E05,54.791015625
2,1,0,23519,1.04296875,0.126953125,3,1,8,57,5,1162.36169433594,297.306213378906,0,1,objects,small,1,0,objects,P,big,VS,O,14,E05,54.791015625
0,1,0,23520,1.232421875,0.146484375,4,1,9,59,6,1207.31555175781,518.968933105469,0,1,faces,female,1,0,objects,P,big,VS,O,14,E05,54.791015625
0,1,0,23521,1.4453125,0.154296875,5,0,7,48,7,1074.63586425781,308.635101318359,1,0,NaN,NaN,1,0,objects,P,big,VS,O,14,E05,54.791015625
1,1,0,23523,1.869140625,0.11328125,6,0,11,69,9,1282.16198730469,610.587341308594,0,1,objects,big,1,0,objects,P,big,VS,O,14,E05,54.791015625
0,1,0,23525,2.517578125,0.125,7,0,12,70,11,1237.38452148438,709.760803222656,0,1,faces,male,1,0,objects,P,big,VS,O,14,E05,54.791015625
2,1,0,23526,2.69140625,0.208984375,8,0,11,69,12,1273.47619628906,641.183715820312,0,1,objects,big,1,0,objects,P,big,VS,O,14,E05,54.791015625
0,1,0,23527,2.97265625,0.203125,9,0,6,45,13,938.499633789062,934.748107910156,0,1,faces,male,1,0,objects,P,big,VS,O,14,E05,54.791015625
0,1,0,23529,3.40234375,0.126953125,10,0,15,80,15,1359.55505371094,847.688415527344,0,1,faces,male,1,0,objects,P,big,VS,O,14,E05,54.791015625
0,1,1,23531,3.6875,0.12109375,11,0,13,72,17,1259.06066894531,951.901245117188,0,1,objects,small,1,0,objects,P,big,VS,O,14,E05,54.791015625
0,1,0,23532,3.884765625,0.134765625,12,0,3,13,18,647.867797851562,482.351745605469,0,1,faces,female,1,0,objects,P,big,VS,O,14,E05,54.791015625
0,1,1,23549,0.2890625,0.158203125,1,1,8,23,2,731.1865234375,512.473510742188,0,1,faces,female,1,1,faces,P,female,VS,I,15,E05,58.990234375
1,1,0,23551,0.640625,0.115234375,2,1,7,20,4,802.868286132812,252.022811889648,0,1,faces,female,1,1,faces,P,female,VS,I,15,E05,58.990234375
0,1,0,23552,0.775390625,0.212890625,3,1,9,29,5,844.815490722656,242.512359619141,0,1,faces,female,1,1,faces,P,female,VS,I,15,E05,58.990234375
2,1,0,23553,1.044921875,0.1484375,4,1,7,20,6,758.0771484375,245.557083129883,0,1,faces,female,1,1,faces,P,female,VS,I,15,E05,58.990234375
0,1,0,23554,1.23046875,0.181640625,5,0,2,10,7,688.707885742188,154.009857177734,0,1,objects,small,1,1,faces,P,female,VS,I,15,E05,58.990234375
0,1,0,23555,1.46875,0.224609375,6,0,3,12,8,657.526000976562,347.047393798828,0,1,faces,male,1,1,faces,P,female,VS,I,15,E05,58.990234375
0,1,0,23556,1.765625,0.111328125,7,0,4,14,9,654.578247070312,587.246704101562,0,1,faces,male,1,1,faces,P,female,VS,I,15,E05,58.990234375
0,0,1,23557,1.927734375,0.4140625,8,0,5,15,10,653.870788574219,659.495239257812,1,0,NaN,NaN,1,1,faces,P,female,VS,I,15,E05,58.990234375
0,0,1,23560,2.857421875,0.1484375,9,0,12,55,13,1176.3837890625,152.914245605469,0,1,objects,big,1,1,faces,P,female,VS,I,15,E05,58.990234375
0,0,1,23562,3.326171875,0.181640625,10,0,14,67,15,1266.88024902344,440.442047119141,0,1,faces,male,1,1,faces,P,female,VS,I,15,E05,58.990234375
0,0,1,23564,3.7109375,0.240234375,11,0,13,60,17,1153.9169921875,640.920288085938,0,1,objects,big,1,1,faces,P,female,VS,I,15,E05,58.990234375
0,0,1,23578,0.67578125,0.24609375,1,1,9,41,4,947.814086914062,510.535675048828,1,0,NaN,NaN,1,1,objects,P,small,VS,O,16,E05,63.189453125
0,0,1,23580,1.314453125,0.11328125,2,1,7,30,6,901.097473144531,372.862426757812,0,1,faces,male,1,1,objects,P,small,VS,O,16,E05,63.189453125
1,0,0,23582,1.7890625,0.197265625,3,1,8,39,8,990.767333984375,336.333221435547,0,1,objects,big,1,1,objects,P,small,VS,O,16,E05,63.189453125
1,0,0,23583,2.033203125,0.265625,4,1,10,48,9,1070.55847167969,332.780242919922,0,1,faces,female,1,1,objects,P,small,VS,O,16,E05,63.189453125
2,0,1,23584,2.34765625,0.302734375,5,0,8,39,10,956.017028808594,336.100646972656,0,1,objects,big,1,1,objects,P,small,VS,O,16,E05,63.189453125
2,0,0,23586,3.052734375,0.650390625,6,0,10,48,12,1063.09094238281,331.554412841797,0,1,faces,female,1,1,objects,P,small,VS,O,16,E05,63.189453125
1,1,1,23601,0.28515625,0.15234375,1,1,7,34,2,903.544860839844,728.2685546875,1,0,NaN,NaN,1,1,faces,P,female,VS,I,17,E05,67.388671875
0,0,1,23603,1.3828125,0.234375,2,1,5,25,4,730.900207519531,728.776000976562,0,1,faces,male,1,1,faces,P,female,VS,I,17,E05,67.388671875
2,0,0,23605,1.986328125,0.15234375,3,1,7,34,6,849.018005371094,731.062744140625,1,0,NaN,NaN,1,1,faces,P,female,VS,I,17,E05,67.388671875
1,0,1,23606,2.201171875,0.11328125,4,1,6,31,7,810.036193847656,414.935241699219,0,1,faces,male,1,1,faces,P,female,VS,I,17,E05,67.388671875
0,0,0,23608,2.591796875,0.1640625,5,0,3,13,9,662.69775390625,426.067932128906,0,1,objects,big,1,1,faces,P,female,VS,I,17,E05,67.388671875
0,0,1,23609,2.818359375,0.240234375,6,0,2,11,10,665.411682128906,202.975372314453,0,1,objects,small,1,1,faces,P,female,VS,I,17,E05,67.388671875
0,0,0,23611,3.181640625,0.33203125,7,0,1,10,12,654.255737304688,111.536811828613,0,1,faces,female,1,1,faces,P,female,VS,I,17,E05,67.388671875
0,0,0,23612,3.57421875,0.34765625,8,0,8,37,13,944.209594726562,128.443969726562,0,1,objects,small,1,1,faces,P,female,VS,I,17,E05,67.388671875
2,0,0,23613,3.990234375,0.12109375,9,0,6,31,14,825.976379394531,446.526153564453,0,1,faces,male,1,1,faces,P,female,VS,I,17,E05,67.388671875
1,1,0,23633,0.326171875,0.107421875,1,1,6,33,2,855.123291015625,615.652160644531,0,1,objects,small,1,0,faces,P,male,VS,I,18,E05,71.587890625
0,1,1,23635,0.607421875,0.224609375,2,1,11,59,4,1143.55407714844,497.470886230469,0,1,faces,male,1,0,faces,P,male,VS,I,18,E05,71.587890625
1,0,0,23637,0.97265625,0.20703125,3,1,14,68,6,1265.5302734375,521.610046386719,1,0,NaN,NaN,1,0,faces,P,male,VS,I,18,E05,71.587890625
0,0,0,23638,1.244140625,0.1171875,4,1,12,65,7,1237.89172363281,243.48291015625,0,1,objects,big,1,0,faces,P,male,VS,I,18,E05,71.587890625
0,0,0,23640,1.595703125,0.205078125,5,0,8,37,9,951.443725585938,125.533248901367,0,1,faces,female,1,0,faces,P,male,VS,I,18,E05,71.587890625
0,0,0,23641,1.865234375,0.1875,6,0,1,2,10,589.470764160156,219.796981811523,0,1,faces,female,1,0,faces,P,male,VS,I,18,E05,71.587890625
0,0,0,23643,2.287109375,0.1328125,7,0,2,8,12,568.363525390625,850.805908203125,0,1,faces,male,1,0,faces,P,male,VS,I,18,E05,71.587890625
0,0,0,23644,2.474609375,0.201171875,8,0,5,27,13,737.026184082031,950.944885253906,0,1,faces,female,1,0,faces,P,male,VS,I,18,E05,71.587890625
0,0,0,23645,2.740234375,0.203125,9,0,15,72,14,1252.98486328125,967.289794921875,0,1,faces,male,1,0,faces,P,male,VS,I,18,E05,71.587890625
0,0,0,23646,3.0078125,0.103515625,10,0,10,53,15,1048.75805664062,841.930480957031,0,1,objects,small,1,0,faces,P,male,VS,I,18,E05,71.587890625
2,0,0,23647,3.16796875,0.166015625,11,0,6,33,16,866.050903320312,671.097412109375,0,1,objects,small,1,0,faces,P,male,VS,I,18,E05,71.587890625
0,0,0,23648,3.380859375,0.3203125,12,0,7,34,17,855.04248046875,727.796325683594,0,1,faces,male,1,0,faces,P,male,VS,I,18,E05,71.587890625
2,0,1,23649,3.76953125,0.130859375,13,0,14,68,18,1242.57788085938,517.959838867188,1,0,NaN,NaN,1,0,faces,P,male,VS,I,18,E05,71.587890625
1,1,0,23663,0.25390625,0.14453125,1,1,2,6,1,590.092407226562,646.571655273438,0,1,faces,male,1,1,objects,P,small,VS,O,19,E05,75.787109375
1,1,1,23665,0.52734375,0.103515625,2,1,3,7,3,548.177856445312,758.868591308594,1,0,NaN,NaN,1,1,objects,P,small,VS,O,19,E05,75.787109375
2,1,1,23667,0.8125,0.130859375,3,1,3,7,5,525.552673339844,746.623107910156,1,0,NaN,NaN,1,1,objects,P,small,VS,O,19,E05,75.787109375
2,0,1,23669,1.333984375,0.134765625,4,1,2,6,7,578.881103515625,629.146057128906,0,1,faces,male,1,1,objects,P,small,VS,O,19,E05,75.787109375
0,0,0,23671,1.775390625,0.275390625,5,0,1,3,9,568.558044433594,318.775665283203,0,1,faces,female,1,1,objects,P,small,VS,O,19,E05,75.787109375
0,0,0,23672,2.08984375,0.208984375,6,0,4,11,10,669.09375,207.409805297852,0,1,faces,female,1,1,objects,P,small,VS,O,19,E05,75.787109375
0,0,1,23673,2.361328125,0.138671875,7,0,7,37,11,983.272766113281,123.034934997559,0,1,objects,small,1,1,objects,P,small,VS,O,19,E05,75.787109375
0,0,0,23675,2.908203125,0.361328125,8,0,11,55,13,1151.46557617188,126.40022277832,0,1,faces,female,1,1,objects,P,small,VS,O,19,E05,75.787109375
0,0,0,23676,3.328125,0.15625,9,0,9,48,14,1048.10949707031,315.243469238281,0,1,faces,male,1,1,objects,P,small,VS,O,19,E05,75.787109375
3,0,0,23678,3.7421875,0.33203125,10,0,3,7,16,547.584350585938,774.68603515625,1,0,NaN,NaN,1,1,objects,P,small,VS,O,19,E05,75.787109375
0,1,1,23698,0.37890625,0.109375,1,1,10,68,2,1307.49157714844,533.412231445312,0,1,faces,male,1,0,faces,P,male,VS,F,20,E05,79.986328125
0,1,0,23701,0.8828125,0.1796875,2,1,5,33,5,860.911865234375,640.312927246094,0,1,faces,female,1,0,faces,P,male,VS,F,20,E05,79.986328125
0,1,0,23702,1.11328125,0.10546875,3,1,7,43,6,941.736572265625,724.528747558594,0,1,objects,big,1,0,faces,P,male,VS,F,20,E05,79.986328125
1,1,0,23703,1.28125,0.13671875,4,1,1,15,7,687.965087890625,669.424560546875,0,1,faces,male,1,0,faces,P,male,VS,F,20,E05,79.986328125
0,1,0,23704,1.4609375,0.208984375,5,0,3,22,8,747.441711425781,484.434936523438,0,1,faces,male,1,0,faces,P,male,VS,F,20,E05,79.986328125
2,1,0,23705,1.724609375,0.1875,6,0,1,15,9,646.5263671875,617.820983886719,0,1,faces,male,1,0,faces,P,male,VS,F,20,E05,79.986328125
0,1,0,23707,2.07421875,0.15234375,7,0,2,18,11,638.848022460938,956.820129394531,0,1,faces,male,1,0,faces,P,male,VS,F,20,E05,79.986328125
0,1,1,23708,2.30859375,0.1171875,8,0,13,72,12,1261.21020507812,932.188049316406,0,1,objects,small,1,0,faces,P,male,VS,F,20,E05,79.986328125
0,1,1,23710,2.6171875,0.14453125,9,0,12,71,14,1276.87390136719,813.815002441406,0,1,faces,female,1,0,faces,P,male,VS,F,20,E05,79.986328125
1,0,0,23712,2.9296875,0.2421875,10,0,15,79,16,1395.0673828125,713.09521484375,1,0,NaN,NaN,1,0,faces,P,male,VS,F,20,E05,79.986328125
0,0,1,23713,3.20703125,0.14453125,11,0,11,69,17,1302.67346191406,640.413635253906,0,1,faces,female,1,0,faces,P,male,VS,F,20,E05,79.986328125
2,0,1,23715,3.6015625,0.103515625,12,0,15,79,19,1378.73461914062,750.804260253906,1,0,NaN,NaN,1,0,faces,P,male,VS,F,20,E05,79.986328125
1,1,1,23732,0.228515625,0.103515625,1,1,10,42,1,925.575073242188,668.833129882812,0,1,faces,male,0,1,faces,A,male,EX,I,21,E05,84.185546875
0,1,1,23734,0.724609375,0.107421875,2,1,15,78,3,1331.48059082031,612.657287597656,0,1,objects,small,0,1,faces,A,male,EX,I,21,E05,84.185546875
0,1,1,23736,1.25390625,0.15625,3,1,3,17,5,639.094299316406,887.349426269531,0,1,objects,big,0,1,faces,A,male,EX,I,21,E05,84.185546875
0,1,0,23739,1.912109375,0.138671875,4,1,4,24,8,755.40478515625,649.115600585938,0,1,objects,big,0,1,faces,A,male,EX,I,21,E05,84.185546875
2,1,1,23740,2.107421875,0.201171875,5,0,10,42,9,941.156616210938,646.628479003906,0,1,faces,male,0,1,faces,A,male,EX,I,21,E05,84.185546875
0,1,0,23742,2.501953125,0.306640625,6,0,2,13,11,641.261840820312,426.480804443359,0,1,faces,female,0,1,faces,A,male,EX,I,21,E05,84.185546875
0,1,0,23743,2.857421875,0.2578125,7,0,1,4,12,543.588928222656,428.013641357422,0,1,faces,male,0,1,faces,A,male,EX,I,21,E05,84.185546875
0,1,1,23744,3.19140625,0.1328125,8,0,8,37,13,932.247741699219,172.181060791016,0,1,faces,male,0,1,faces,A,male,EX,I,21,E05,84.185546875
0,1,0,23746,3.673828125,0.224609375,9,0,9,38,15,970.088500976562,229.814636230469,0,1,faces,female,0,1,faces,A,male,EX,I,21,E05,84.185546875
0,1,0,23747,3.966796875,0.37890625,10,0,12,64,16,1268.69299316406,132.383117675781,0,1,objects,small,0,1,faces,A,male,EX,I,21,E05,84.185546875
0,1,1,23766,0.826171875,0.29296875,1,1,8,36,2,844.957397460938,936.500854492188,0,1,faces,male,0,1,faces,A,male,EX,F,22,E05,88.384765625
0,1,1,23768,1.302734375,0.134765625,2,1,15,81,4,1336.091796875,964.229309082031,0,1,objects,small,0,1,faces,A,male,EX,F,22,E05,88.384765625
0,1,0,23770,1.716796875,0.205078125,3,1,14,70,6,1262.50415039062,752.721801757812,0,1,objects,big,0,1,faces,A,male,EX,F,22,E05,88.384765625
0,1,1,23771,1.986328125,0.17578125,4,1,7,33,7,850.852111816406,628.279418945312,0,1,faces,female,0,1,faces,A,male,EX,F,22,E05,88.384765625
0,1,0,23773,2.39453125,0.30859375,5,0,5,14,9,658.090209960938,522.299499511719,0,1,faces,male,0,1,faces,A,male,EX,F,22,E05,88.384765625
0,1,0,23774,2.73828125,0.30078125,6,0,4,13,10,633.529907226562,433.501983642578,0,1,objects,big,0,1,faces,A,male,EX,F,22,E05,88.384765625
0,1,0,23775,3.099609375,0.23828125,7,0,6,31,11,880.242980957031,429.993255615234,0,1,faces,male,0,1,faces,A,male,EX,F,22,E05,88.384765625
0,1,1,23776,3.392578125,0.12890625,8,0,11,49,12,1097.47033691406,421.510955810547,0,1,faces,male,0,1,faces,A,male,EX,F,22,E05,88.384765625
0,1,0,23778,3.736328125,0.328125,9,0,12,57,14,1167.74780273438,309.076477050781,0,1,faces,male,0,1,faces,A,male,EX,F,22,E05,88.384765625
0,1,0,23795,0.328125,0.13671875,1,1,12,55,2,1112.33349609375,112.454223632812,0,1,faces,male,0,1,objects,A,small,EX,O,23,E05,92.583984375
0,1,0,23796,0.48046875,0.32421875,2,1,8,46,3,1080.83618164062,107.898483276367,0,1,objects,small,0,1,objects,A,small,EX,O,23,E05,92.583984375
0,1,0,23797,0.8671875,0.265625,3,1,4,19,4,755.967041015625,101.385841369629,0,1,faces,male,0,1,objects,A,small,EX,O,23,E05,92.583984375
0,1,0,23798,1.185546875,0.111328125,4,1,1,10,5,655.174255371094,117.179504394531,0,1,faces,female,0,1,objects,A,small,EX,O,23,E05,92.583984375
0,1,1,23799,1.37890625,0.20703125,5,0,9,47,6,1073.87866210938,202.584259033203,0,1,objects,small,0,1,objects,A,small,EX,O,23,E05,92.583984375
0,1,1,23801,1.76953125,0.1328125,6,0,15,66,8,1298.16796875,322.734771728516,0,1,faces,male,0,1,objects,A,small,EX,O,23,E05,92.583984375
0,1,1,23803,2.146484375,0.1328125,7,0,7,40,10,990.182800292969,422.246887207031,0,1,faces,female,0,1,objects,A,small,EX,O,23,E05,92.583984375
0,1,0,23805,2.759765625,0.123046875,8,0,13,60,12,1124.74938964844,651.1201171875,0,1,faces,female,0,1,objects,A,small,EX,O,23,E05,92.583984375
0,1,0,23806,2.927734375,0.1796875,9,0,10,51,13,1057.67736816406,644.634033203125,0,1,faces,female,0,1,objects,A,small,EX,O,23,E05,92.583984375
0,1,0,23807,3.169921875,0.255859375,10,0,5,24,14,750.169616699219,637.33642578125,0,1,objects,big,0,1,objects,A,small,EX,O,23,E05,92.583984375
0,1,0,23808,3.482421875,0.125,11,0,2,16,15,635.493225097656,770.740539550781,0,1,faces,male,0,1,objects,A,small,EX,O,23,E05,92.583984375
0,1,0,23809,3.658203125,0.1875,12,0,3,17,16,641.761779785156,848.1298828125,0,1,objects,big,0,1,objects,A,small,EX,O,23,E05,92.583984375
0,1,0,23810,3.93359375,0.46875,13,0,14,62,17,1184.53198242188,867.137939453125,0,1,faces,female,0,1,objects,A,small,EX,O,23,E05,92.583984375
0,1,0,23826,0.392578125,0.232421875,1,1,4,16,2,638.265625,737.560852050781,0,1,faces,female,0,1,faces,A,female,EX,I,24,E05,96.783203125
0,1,1,23827,0.68359375,0.26171875,2,1,7,27,3,736.285522460938,965.189819335938,0,1,objects,big,0,1,faces,A,female,EX,I,24,E05,96.783203125
0,1,0,23830,1.220703125,0.296875,3,1,10,43,6,952.20068359375,742.656066894531,0,1,faces,female,0,1,faces,A,female,EX,I,24,E05,96.783203125
0,1,1,23831,1.57421875,0.15234375,4,1,14,70,7,1291.13793945312,707.336608886719,0,1,faces,male,0,1,faces,A,female,EX,I,24,E05,96.783203125
0,1,0,23833,1.939453125,0.12109375,5,0,15,78,9,1371.078125,611.872985839844,0,1,objects,small,0,1,faces,A,female,EX,I,24,E05,96.783203125
0,1,0,23834,2.1171875,0.125,6,0,13,68,10,1261.40380859375,509.097106933594,0,1,faces,female,0,1,faces,A,female,EX,I,24,E05,96.783203125
0,1,1,23835,2.306640625,0.107421875,7,0,8,31,11,887.949645996094,449.829803466797,0,1,faces,female,0,1,faces,A,female,EX,I,24,E05,96.783203125
1,1,0,23837,2.748046875,0.12890625,8,0,3,14,13,636.463317871094,512.614562988281,0,1,faces,female,0,1,faces,A,female,EX,I,24,E05,96.783203125
0,1,1,23838,2.939453125,0.103515625,9,0,1,3,14,558.824157714844,332.063201904297,0,1,faces,female,0,1,faces,A,female,EX,I,24,E05,96.783203125
0,1,0,23840,3.23828125,0.119140625,10,0,2,10,16,701.698669433594,165.003921508789,0,1,faces,male,0,1,faces,A,female,EX,I,24,E05,96.783203125
0,1,0,23841,3.390625,0.263671875,11,0,5,19,17,719.852905273438,117.238822937012,0,1,objects,small,0,1,faces,A,female,EX,I,24,E05,96.783203125
2,1,0,23842,3.724609375,0.3125,12,0,3,14,18,639.11181640625,518.419677734375,0,1,faces,female,0,1,faces,A,female,EX,I,24,E05,96.783203125
0,1,0,23853,0.23046875,0.1015625,1,1,9,42,1,969.622192382812,591.715698242188,0,1,objects,small,1,1,faces,P,female,VS,I,25,E05,100.982421875
0,1,1,23854,0.458984375,0.107421875,2,1,7,39,2,982.382019042969,387.888458251953,0,1,faces,female,1,1,faces,P,female,VS,I,25,E05,100.982421875
0,1,0,23856,0.81640625,0.29296875,3,1,6,37,4,957.749450683594,137.598922729492,0,1,faces,female,1,1,faces,P,female,VS,I,25,E05,100.982421875
0,1,0,23858,1.33203125,0.162109375,4,1,15,75,6,1348.69140625,365.013885498047,0,1,faces,male,1,1,faces,P,female,VS,I,25,E05,100.982421875
0,1,0,23859,1.5546875,0.16796875,5,0,11,59,7,1190.58898925781,552.154907226562,0,1,faces,female,1,1,faces,P,female,VS,I,25,E05,100.982421875
1,0,0,23860,1.775390625,1.44921875,6,0,12,60,8,1145.50317382812,663.200805664062,1,0,NaN,NaN,1,1,faces,P,female,VS,I,25,E05,100.982421875
2,0,0,23863,3.658203125,0.76171875,7,0,12,60,11,1128.1142578125,685.919616699219,1,0,NaN,NaN,1,1,faces,P,female,VS,I,25,E05,100.982421875
1,1,1,23876,0.400390625,0.125,1,1,6,13,2,663.649719238281,461.608764648438,1,0,NaN,NaN,1,1,faces,P,male,VS,I,26,E05,105.181640625
0,0,1,23878,1.3125,0.15625,2,1,1,1,4,555.08349609375,183.033355712891,0,1,faces,male,1,1,faces,P,male,VS,I,26,E05,105.181640625
0,0,0,23880,1.931640625,0.189453125,3,1,3,6,6,560.168579101562,671.004333496094,0,1,faces,female,1,1,faces,P,male,VS,I,26,E05,105.181640625
2,0,0,23882,2.302734375,1.123046875,4,1,6,13,8,644.507751464844,446.168121337891,1,0,NaN,NaN,1,1,faces,P,male,VS,I,26,E05,105.181640625
0,0,1,23883,3.486328125,0.150390625,5,0,9,40,9,916.957702636719,458.430755615234,0,1,objects,big,1,1,faces,P,male,VS,I,26,E05,105.181640625
0,0,0,23885,3.966796875,0.41015625,6,0,12,58,11,1164.43505859375,448.953918457031,0,1,faces,female,1,1,faces,P,male,VS,I,26,E05,105.181640625
1,1,1,23903,0.353515625,0.1875,1,1,6,40,2,997.899963378906,429.337524414062,0,1,faces,female,0,1,faces,A,male,EX,I,27,E05,109.380859375
0,1,1,23905,0.76171875,0.138671875,2,1,10,51,4,1034.236328125,649.642150878906,0,1,faces,female,0,1,faces,A,male,EX,I,27,E05,109.380859375
0,1,0,23907,1.125,0.259765625,3,1,11,52,6,1047.04736328125,761.249084472656,0,1,objects,big,0,1,faces,A,male,EX,I,27,E05,109.380859375
0,1,0,23908,1.44140625,0.24609375,4,1,4,35,7,836.414611816406,871.688232421875,0,1,faces,female,0,1,faces,A,male,EX,I,27,E05,109.380859375
0,1,1,23909,1.740234375,0.125,5,0,5,36,8,904.952209472656,956.318908691406,0,1,objects,small,0,1,faces,A,male,EX,I,27,E05,109.380859375
0,1,1,23911,2.27734375,0.154296875,6,0,2,17,10,657.785766601562,888.557556152344,0,1,faces,male,0,1,faces,A,male,EX,I,27,E05,109.380859375
0,1,0,23913,2.591796875,0.16015625,7,0,1,15,12,628.636657714844,659.091369628906,0,1,objects,small,0,1,faces,A,male,EX,I,27,E05,109.380859375
2,1,1,23914,2.818359375,0.123046875,8,0,6,40,13,976.101318359375,464.310028076172,0,1,faces,female,0,1,faces,A,male,EX,I,27,E05,109.380859375
0,1,0,23916,3.27734375,0.1796875,9,0,12,58,15,1167.80053710938,442.659088134766,0,1,faces,male,0,1,faces,A,male,EX,I,27,E05,109.380859375
0,1,0,23918,3.734375,0.279296875,10,0,3,28,17,830.282775878906,134.851791381836,0,1,objects,small,0,1,faces,A,male,EX,I,27,E05,109.380859375
0,1,0,23939,0.521484375,0.140625,1,1,2,16,3,616.436279296875,723.6982421875,0,1,objects,small,0,1,objects,A,small,VS,O,28,E05,113.580078125
0,1,0,23940,0.720703125,0.1640625,2,1,7,45,4,942.897521972656,968.680358886719,0,1,faces,male,0,1,objects,A,small,VS,O,28,E05,113.580078125
1,1,0,23942,1.107421875,0.130859375,3,1,8,48,6,1016.05645751953,328.887420654297,0,1,faces,male,0,1,objects,A,small,VS,O,28,E05,113.580078125
0,1,0,23945,1.578125,0.19921875,4,1,12,68,9,1267.47424316406,533.06494140625,0,1,objects,big,0,1,objects,A,small,VS,O,28,E05,113.580078125
0,1,0,23946,1.83984375,0.181640625,5,0,13,71,10,1271.50927734375,874.646362304688,0,1,faces,female,0,1,objects,A,small,VS,O,28,E05,113.580078125
1,1,0,23947,2.095703125,0.24609375,6,0,1,6,11,559.870971679688,651.85546875,0,1,objects,big,0,1,objects,A,small,VS,O,28,E05,113.580078125
2,1,0,23949,2.580078125,0.201171875,7,0,8,48,13,1020.50469970703,317.854827880859,0,1,faces,male,0,1,objects,A,small,VS,O,28,E05,113.580078125
0,1,0,23950,2.83984375,0.197265625,8,0,14,76,14,1359.60766601562,416.934936523438,0,1,faces,female,0,1,objects,A,small,VS,O,28,E05,113.580078125
0,1,0,23951,3.10546875,0.240234375,9,0,5,38,15,953.47314453125,256.076477050781,0,1,faces,female,0,1,objects,A,small,VS,O,28,E05,113.580078125
0,1,1,23953,3.556640625,0.2890625,10,0,3,23,17,734.512512207031,569.618225097656,0,1,faces,male,0,1,objects,A,small,VS,O,28,E05,113.580078125
2,1,0,23954,3.904296875,0.37109375,11,0,1,6,18,543.652526855469,645.751342773438,0,1,objects,big,0,1,objects,A,small,VS,O,28,E05,113.580078125
1,1,1,23977,0.8359375,0.13671875,1,1,7,43,4,940.018432617188,722.565856933594,0,1,faces,male,0,1,objects,A,big,VS,O,29,E05,117.779296875
0,1,0,23979,1.1640625,0.1796875,2,1,8,45,6,959.611328125,931.134399414062,0,1,objects,big,0,1,objects,A,big,VS,O,29,E05,117.779296875
0,1,0,23980,1.396484375,0.16796875,3,1,10,53,7,1058.07727050781,873.847045898438,0,1,objects,big,0,1,objects,A,big,VS,O,29,E05,117.779296875
0,1,0,23981,1.61328125,0.1328125,4,1,13,62,8,1153.42565917969,859.893005371094,0,1,objects,big,0,1,objects,A,big,VS,O,29,E05,117.779296875
0,1,0,23982,1.798828125,0.12109375,5,0,15,72,9,1261.29150390625,958.026184082031,0,1,objects,small,0,1,objects,A,big,VS,O,29,E05,117.779296875
0,1,0,23983,1.98828125,0.13671875,6,0,2,18,10,620.242736816406,965.905456542969,0,1,faces,male,0,1,objects,A,big,VS,O,29,E05,117.779296875
0,1,1,23985,2.349609375,0.103515625,7,0,5,28,12,893.835205078125,138.971221923828,0,1,objects,small,0,1,objects,A,big,VS,O,29,E05,117.779296875
0,1,0,23987,2.6796875,0.189453125,8,0,6,37,14,961.646423339844,119.321731567383,0,1,faces,male,0,1,objects,A,big,VS,O,29,E05,117.779296875
0,1,0,23988,2.927734375,0.212890625,9,0,3,21,15,779.449096679688,324.431335449219,0,1,faces,male,0,1,objects,A,big,VS,O,29,E05,117.779296875
0,1,0,23989,3.1953125,0.11328125,10,0,1,13,16,683.485229492188,443.215576171875,0,1,faces,male,0,1,objects,A,big,VS,O,29,E05,117.779296875
0,1,0,23990,3.373046875,0.12890625,11,0,14,69,17,1220.46325683594,664.775512695312,0,1,faces,female,0,1,objects,A,big,VS,O,29,E05,117.779296875
0,1,0,23991,3.53125,0.15625,12,0,11,60,18,1171.65576171875,646.548645019531,0,1,faces,female,0,1,objects,A,big,VS,O,29,E05,117.779296875
0,1,0,23992,3.744140625,0.1640625,13,0,12,61,19,1173.90930175781,761.385620117188,0,1,faces,female,0,1,objects,A,big,VS,O,29,E05,117.779296875
2,1,0,23993,3.966796875,0.443359375,14,0,7,43,20,941.35205078125,754.793518066406,0,1,faces,male,0,1,objects,A,big,VS,O,29,E05,117.779296875
0,1,0,24011,0.388671875,0.1015625,1,1,8,24,2,757.373779296875,619.396545410156,0,1,faces,female,0,1,objects,P,small,VS,O,30,E05,121.978515625
0,1,0,24012,0.568359375,0.216796875,2,1,6,21,3,753.422973632812,322.238220214844,0,1,objects,big,0,1,objects,P,small,VS,O,30,E05,121.978515625
0,1,1,24013,0.84375,0.123046875,3,1,2,5,4,577.217407226562,510.211853027344,0,1,faces,male,0,1,objects,P,small,VS,O,30,E05,121.978515625
0,1,0,24015,1.166015625,0.173828125,4,1,4,15,6,668.107299804688,668.961303710938,0,1,faces,male,0,1,objects,P,small,VS,O,30,E05,121.978515625
0,1,0,24039,0.5703125,0.115234375,1,1,5,23,3,734.516906738281,523.488342285156,0,1,faces,female,1,0,faces,P,female,VS,I,31,E05,126.177734375
0,1,1,24040,0.7421875,0.140625,2,1,2,12,4,660.670166015625,328.408813476562,0,1,faces,female,1,0,faces,P,female,VS,I,31,E05,126.177734375
1,0,0,24042,1.240234375,0.28125,3,1,12,58,6,1151.05932617188,427.568084716797,1,0,NaN,NaN,1,0,faces,P,female,VS,I,31,E05,126.177734375
1,0,1,24043,1.591796875,0.1171875,4,1,3,14,7,626.685546875,509.565277099609,0,1,faces,female,1,0,faces,P,female,VS,I,31,E05,126.177734375
2,0,0,24045,1.875,0.146484375,5,0,12,58,9,1175.55090332031,452.738739013672,1,0,NaN,NaN,1,0,faces,P,female,VS,I,31,E05,126.177734375
2,0,0,24047,2.2421875,0.27734375,6,0,3,14,11,644.709777832031,542.32666015625,0,1,faces,female,1,0,faces,P,female,VS,I,31,E05,126.177734375
0,0,0,24049,2.798828125,0.12890625,7,0,7,28,13,869.810180664062,173.180191040039,0,1,objects,big,1,0,faces,P,female,VS,I,31,E05,126.177734375
0,0,0,24050,2.98046875,0.181640625,8,0,4,20,14,746.691467285156,242.16145324707,0,1,faces,male,1,0,faces,P,female,VS,I,31,E05,126.177734375
0,0,0,24051,3.220703125,0.177734375,9,0,8,38,15,950.845031738281,244.396789550781,0,1,faces,female,1,0,faces,P,female,VS,I,31,E05,126.177734375
0,0,1,24052,3.466796875,0.16796875,10,0,15,79,16,1347.30603027344,694.019348144531,0,1,objects,small,1,0,faces,P,female,VS,I,31,E05,126.177734375
0,0,0,24054,3.822265625,0.20703125,11,0,13,62,18,1145.7783203125,874.324340820312,0,1,faces,male,1,0,faces,P,female,VS,I,31,E05,126.177734375
1,1,0,24063,0.39453125,0.17578125,1,1,8,33,2,833.082580566406,649.101440429688,0,1,faces,female,1,1,faces,P,female,VS,F,32,E05,130.376953125
0,1,0,24064,0.62890625,0.126953125,2,1,4,8,3,582.595397949219,876.773193359375,0,1,objects,big,1,1,faces,P,female,VS,F,32,E05,130.376953125
0,1,0,24065,0.775390625,0.15625,3,1,6,17,4,615.998046875,876.910278320312,0,1,faces,female,1,1,faces,P,female,VS,F,32,E05,130.376953125
0,1,0,24066,0.99609375,0.205078125,4,1,10,45,5,931.394409179688,987.373901367188,0,1,faces,female,1,1,faces,P,female,VS,F,32,E05,130.376953125
2,1,0,24068,1.423828125,0.109375,5,0,8,33,7,826.668579101562,648.28076171875,0,1,faces,female,1,1,faces,P,female,VS,F,32,E05,130.376953125
1,1,0,24069,1.58984375,0.1953125,6,0,7,22,8,729.251708984375,448.866333007812,1,0,NaN,NaN,1,1,faces,P,female,VS,F,32,E05,130.376953125
2,1,1,24071,2.068359375,0.1953125,7,0,7,22,10,762.347900390625,457.854461669922,1,0,NaN,NaN,1,1,faces,P,female,VS,F,32,E05,130.376953125
0,0,0,24074,3.099609375,0.333984375,8,0,1,2,13,541.297241210938,284.385589599609,0,1,objects,small,1,1,faces,P,female,VS,F,32,E05,130.376953125
0,0,0,24075,3.49609375,0.2265625,9,0,5,10,14,629.710388183594,141.703384399414,0,1,faces,male,1,1,faces,P,female,VS,F,32,E05,130.376953125
0,0,0,24076,3.8046875,0.171875,10,0,14,64,15,1279.05725097656,188.4755859375,0,1,faces,male,1,1,faces,P,female,VS,F,32,E05,130.376953125
1,1,0,24093,0.271484375,0.18359375,1,1,6,32,2,874.894104003906,577.089660644531,0,1,faces,female,0,1,faces,A,male,VS,I,33,E05,134.576171875
0,1,0,24094,0.509765625,0.201171875,2,1,10,50,3,1038.27600097656,551.812927246094,0,1,faces,female,0,1,faces,A,male,VS,I,33,E05,134.576171875
0,1,0,24095,0.775390625,0.181640625,3,1,2,5,4,562.006469726562,560.839172363281,0,1,faces,female,0,1,faces,A,male,VS,I,33,E05,134.576171875
0,1,0,24097,1.193359375,0.173828125,4,1,12,61,6,1167.37438964844,770.124938964844,0,1,faces,female,0,1,faces,A,male,VS,I,33,E05,134.576171875
0,1,1,24099,1.560546875,0.142578125,5,0,14,75,8,1372.12707519531,326.408569335938,0,1,faces,male,0,1,faces,A,male,VS,I,33,E05,134.576171875
0,1,0,24100,1.76953125,0.16015625,6,0,8,37,9,917.558471679688,182.082015991211,0,1,objects,big,0,1,faces,A,male,VS,I,33,E05,134.576171875
0,1,0,24101,1.958984375,0.115234375,7,0,9,38,10,954.447631835938,224.360900878906,0,1,faces,male,0,1,faces,A,male,VS,I,33,E05,134.576171875
0,1,1,24102,2.14453125,0.314453125,8,0,1,1,11,545.885009765625,137.371978759766,0,1,faces,male,0,1,faces,A,male,VS,I,33,E05,134.576171875
0,1,1,24104,2.63671875,0.12109375,9,0,5,27,13,728.490112304688,890.449462890625,0,1,faces,female,0,1,faces,A,male,VS,I,33,E05,134.576171875
0,1,0,24106,2.953125,0.36328125,10,0,7,36,15,845.971252441406,966.843017578125,0,1,faces,male,0,1,faces,A,male,VS,I,33,E05,134.576171875
2,1,0,24109,3.744140625,0.2265625,11,0,6,32,18,863.17138671875,561.534912109375,0,1,faces,female,0,1,faces,A,male,VS,I,33,E05,134.576171875
0,1,1,24132,0.50390625,0.103515625,1,1,5,36,3,829.342468261719,925.892150878906,0,1,faces,female,1,1,objects,P,small,VS,O,34,E05,138.775390625
0,1,1,24134,0.755859375,0.10546875,2,1,3,14,5,656.282104492188,573.832336425781,0,1,objects,big,1,1,objects,P,small,VS,O,34,E05,138.775390625
1,1,0,24136,1.017578125,0.169921875,3,1,7,50,7,1055.04772949219,526.164672851562,0,1,faces,male,1,1,objects,P,small,VS,O,34,E05,138.775390625
1,1,0,24137,1.24609375,0.15625,4,1,9,57,8,1162.24768066406,335.880432128906,0,1,objects,big,1,1,objects,P,small,VS,O,34,E05,138.775390625
0,0,1,24138,1.458984375,0.234375,5,0,15,75,9,1345.42041015625,333.710357666016,1,0,NaN,NaN,1,1,objects,P,small,VS,O,34,E05,138.775390625
0,0,0,24140,1.91015625,0.1953125,6,0,11,65,11,1291.76867675781,240.411422729492,0,1,faces,male,1,1,objects,P,small,VS,O,34,E05,138.775390625
0,0,0,24141,2.166015625,0.248046875,7,0,6,46,12,1061.80810546875,139.234130859375,0,1,faces,male,1,1,objects,P,small,VS,O,34,E05,138.775390625
0,0,0,24143,2.6328125,0.310546875,8,0,2,10,14,663.148376464844,135.244659423828,0,1,objects,big,1,1,objects,P,small,VS,O,34,E05,138.775390625
2,0,1,24144,3.013671875,0.189453125,9,0,9,57,15,1151.34240722656,301.693023681641,0,1,objects,big,1,1,objects,P,small,VS,O,34,E05,138.775390625
2,0,0,24146,3.642578125,0.3828125,10,0,7,50,17,1054.43579101562,539.41162109375,0,1,faces,male,1,1,objects,P,small,VS,O,34,E05,138.775390625
0,1,0,24170,1.1953125,0.103515625,1,1,1,5,6,583.654479980469,577.717590332031,0,1,faces,female,0,0,faces,A,female,EX,F,35,E05,142.974609375
0,1,0,24171,1.33203125,0.2421875,2,1,3,14,7,632.547546386719,530.271423339844,0,1,faces,male,0,0,faces,A,female,EX,F,35,E05,142.974609375
0,1,0,24172,1.6171875,0.162109375,3,1,6,21,8,726.503540039062,388.606536865234,0,1,faces,male,0,0,faces,A,female,EX,F,35,E05,142.974609375
0,1,0,24173,1.794921875,0.150390625,4,1,7,22,9,749.348083496094,423.845794677734,0,1,faces,male,0,0,faces,A,female,EX,F,35,E05,142.974609375
0,1,1,24174,2.001953125,0.16015625,5,0,11,39,10,948.631103515625,312.253479003906,0,1,objects,big,0,0,faces,A,female,EX,F,35,E05,142.974609375
0,1,0,24176,2.548828125,0.400390625,6,0,5,20,12,741.598083496094,239.926239013672,0,1,objects,small,0,0,faces,A,female,EX,F,35,E05,142.974609375
0,1,0,24177,3.005859375,0.390625,7,0,2,10,13,636.813110351562,132.113891601562,0,1,objects,big,0,0,faces,A,female,EX,F,35,E05,142.974609375
0,1,1,24178,3.462890625,0.1640625,8,0,13,56,14,1135.6572265625,236.436920166016,0,1,faces,male,0,0,faces,A,female,EX,F,35,E05,142.974609375
0,1,0,24180,3.892578125,0.6328125,9,0,15,77,16,1351.32177734375,528.198852539062,0,1,objects,small,0,0,faces,A,female,EX,F,35,E05,142.974609375
0,1,0,24202,0.2890625,0.125,1,1,3,23,2,732.899475097656,506.868347167969,0,1,faces,male,1,1,objects,P,big,VS,O,36,E05,147.173828125
0,1,0,24203,0.47265625,0.173828125,2,1,1,4,3,540.760681152344,454.238494873047,0,1,objects,big,1,1,objects,P,big,VS,O,36,E05,147.173828125
0,1,0,24205,0.84375,0.107421875,3,1,5,48,5,1052.30480957031,333.542541503906,0,1,objects,small,1,1,objects,P,big,VS,O,36,E05,147.173828125
0,1,0,24206,1.01171875,0.130859375,4,1,4,37,6,965.772766113281,120.077568054199,0,1,faces,male,1,1,objects,P,big,VS,O,36,E05,147.173828125
0,1,1,24207,1.19921875,0.123046875,5,0,9,65,7,1250.33081054688,252.891494750977,0,1,faces,female,1,1,objects,P,big,VS,O,36,E05,147.173828125
0,0,0,24210,1.66796875,0.744140625,6,0,13,76,10,1367.96459960938,436.331207275391,1,0,NaN,NaN,1,1,objects,P,big,VS,O,36,E05,147.173828125
0,0,0,24212,2.611328125,0.240234375,7,0,14,79,12,1382.4130859375,748.159484863281,0,1,faces,female,1,1,objects,P,big,VS,O,36,E05,147.173828125
0,0,0,24213,2.90625,0.1015625,8,0,15,81,13,1317.88879394531,962.690368652344,0,1,objects,small,1,1,objects,P,big,VS,O,36,E05,147.173828125
0,0,0,24214,3.037109375,0.123046875,9,0,11,72,14,1274.43640136719,969.377014160156,0,1,faces,female,1,1,objects,P,big,VS,O,36,E05,147.173828125
0,0,1,24216,3.36328125,0.109375,10,0,6,50,16,1029.54638671875,571.989318847656,0,1,faces,male,1,1,objects,P,big,VS,O,36,E05,147.173828125
0,0,0,24218,3.7265625,0.16796875,11,0,7,51,18,1056.80053710938,623.219177246094,0,1,faces,female,1,1,objects,P,big,VS,O,36,E05,147.173828125
0,1,1,24231,0.39453125,0.15625,1,1,5,14,2,669.026245117188,528.000244140625,1,0,NaN,NaN,1,1,faces,P,male,VS,F,37,E05,151.373046875
0,0,1,24233,1.2734375,0.15234375,2,1,4,13,4,634.632568359375,471.222503662109,0,1,faces,male,1,1,faces,P,male,VS,F,37,E05,151.373046875
0,0,1,24235,1.634765625,0.125,3,1,10,46,6,1104.54150390625,143.804077148438,0,1,faces,male,1,1,faces,P,male,VS,F,37,E05,151.373046875
0,0,0,24237,2.080078125,0.26953125,4,1,12,64,8,1244.54968261719,148.184860229492,0,1,objects,big,1,1,faces,P,male,VS,F,37,E05,151.373046875
0,0,0,24240,2.798828125,0.779296875,5,0,13,69,11,1284.66162109375,639.864135742188,0,1,objects,small,1,1,faces,P,male,VS,F,37,E05,151.373046875
0,0,1,24242,3.751953125,0.181640625,6,0,15,80,13,1375.28576660156,864.152160644531,0,1,objects,big,1,1,faces,P,male,VS,F,37,E05,151.373046875
0,0,0,24243,3.990234375,0.10546875,7,0,14,72,14,1224.70947265625,975.574768066406,0,1,faces,female,1,1,faces,P,male,VS,F,37,E05,151.373046875
0,1,0,24263,0.376953125,0.177734375,1,1,4,13,2,653.898803710938,439.912078857422,0,1,objects,small,0,1,objects,A,big,EX,O,38,E05,155.572265625
0,1,0,24264,0.609375,0.255859375,2,1,2,4,3,517.275573730469,419.631439208984,0,1,faces,female,0,1,objects,A,big,EX,O,38,E05,155.572265625
0,1,1,24265,0.9375,0.11328125,3,1,1,1,4,583.842041015625,172.403167724609,0,1,faces,female,0,1,objects,A,big,EX,O,38,E05,155.572265625
0,1,1,24267,1.462890625,0.107421875,4,1,11,58,6,1113.84997558594,390.782897949219,0,1,faces,male,0,1,objects,A,big,EX,O,38,E05,155.572265625
0,1,1,24269,1.85546875,0.1640625,5,0,13,69,8,1257.23901367188,660.926940917969,0,1,faces,male,0,1,objects,A,big,EX,O,38,E05,155.572265625
0,1,1,24271,2.255859375,0.1328125,6,0,10,52,10,1033.75708007812,758.292846679688,0,1,faces,male,0,1,objects,A,big,EX,O,38,E05,155.572265625
0,1,0,24273,2.859375,0.109375,7,0,8,35,12,903.286193847656,887.832702636719,0,1,objects,small,0,1,objects,A,big,EX,O,38,E05,155.572265625
0,1,0,24274,2.99609375,0.248046875,8,0,9,44,13,921.704162597656,867.326354980469,0,1,objects,big,0,1,objects,A,big,EX,O,38,E05,155.572265625
0,1,0,24276,3.515625,0.296875,9,0,7,34,15,820.93310546875,759.472473144531,0,1,objects,big,0,1,objects,A,big,EX,O,38,E05,155.572265625
0,1,0,24300,0.447265625,0.193359375,1,1,2,24,2,746.333312988281,654.293029785156,0,1,objects,small,0,0,objects,P,small,VS,O,39,E05,159.771484375
0,1,0,24301,0.697265625,0.13671875,2,1,6,42,3,956.517944335938,683.148681640625,0,1,faces,female,0,0,objects,P,small,VS,O,39,E05,159.771484375
0,1,0,24302,0.88671875,0.1875,3,1,9,53,4,1025.01708984375,845.230773925781,0,1,faces,female,0,0,objects,P,small,VS,O,39,E05,159.771484375
1,1,0,24303,1.111328125,0.19140625,4,1,11,61,5,1152.01098632812,788.520812988281,0,1,faces,female,0,0,objects,P,small,VS,O,39,E05,159.771484375
0,1,1,24304,1.35546875,0.1171875,5,0,13,72,6,1238.62854003906,905.409240722656,0,1,faces,female,0,0,objects,P,small,VS,O,39,E05,159.771484375
0,1,0,24306,1.69921875,0.16015625,6,0,10,54,8,1032.57360839844,979.521911621094,0,1,objects,small,0,0,objects,P,small,VS,O,39,E05,159.771484375
0,1,0,24307,1.92578125,0.216796875,7,0,15,79,9,1343.12890625,776.224304199219,0,1,faces,male,0,0,objects,P,small,VS,O,39,E05,159.771484375
2,1,0,24308,2.197265625,0.15625,8,0,11,61,10,1157.24438476562,769.9716796875,0,1,faces,female,0,0,objects,P,small,VS,O,39,E05,159.771484375
0,1,0,24310,2.564453125,0.173828125,9,0,1,15,12,646.463928222656,685.136169433594,0,1,objects,big,0,0,objects,P,small,VS,O,39,E05,159.771484375
0,1,0,24313,3.107421875,0.19921875,10,0,14,73,15,1356.62426757812,157.272247314453,0,1,faces,male,0,0,objects,P,small,VS,O,39,E05,159.771484375
1,1,0,24314,3.369140625,0.185546875,11,0,8,50,16,1058.34545898438,518.046081542969,0,1,objects,big,0,0,objects,P,small,VS,O,39,E05,159.771484375
0,1,0,24315,3.587890625,0.17578125,12,0,7,49,17,1065.28491210938,435.201995849609,0,1,faces,male,0,0,objects,P,small,VS,O,39,E05,159.771484375
2,1,0,24316,3.814453125,0.19921875,13,0,8,50,18,1064.20373535156,544.573364257812,0,1,objects,big,0,0,objects,P,small,VS,O,39,E05,159.771484375
1,1,0,24336,0.21875,0.166015625,1,1,9,33,1,822.459655761719,633.486389160156,0,1,faces,male,1,1,faces,P,male,VS,F,40,E05,163.970703125
0,1,0,24338,0.55078125,0.20703125,2,1,6,21,3,731.813903808594,311.573303222656,0,1,faces,male,1,1,faces,P,male,VS,F,40,E05,163.970703125
0,1,0,24339,0.8203125,0.30859375,3,1,3,15,4,650.765747070312,627.958190917969,0,1,faces,male,1,1,faces,P,male,VS,F,40,E05,163.970703125
0,1,0,24340,1.203125,0.169921875,4,1,10,34,5,856.234741210938,752.678894042969,0,1,faces,female,1,1,faces,P,male,VS,F,40,E05,163.970703125
0,1,0,24341,1.427734375,0.12890625,5,0,13,61,6,1144.80224609375,744.017272949219,0,1,objects,small,1,1,faces,P,male,VS,F,40,E05,163.970703125
0,1,0,24343,1.728515625,0.22265625,6,0,14,68,8,1258.49743652344,525.368041992188,0,1,faces,male,1,1,faces,P,male,VS,F,40,E05,163.970703125
2,1,0,24344,2.05859375,0.15625,7,0,9,33,9,857.213500976562,644.645629882812,0,1,faces,male,1,1,faces,P,male,VS,F,40,E05,163.970703125
0,1,1,24345,2.296875,0.1953125,8,0,8,28,10,835.706970214844,117.985488891602,0,1,faces,female,1,1,faces,P,male,VS,F,40,E05,163.970703125
0,1,0,24347,2.6171875,0.18359375,9,0,5,19,12,746.006408691406,136.770980834961,0,1,faces,male,1,1,faces,P,male,VS,F,40,E05,163.970703125
0,1,1,24348,2.875,0.10546875,10,0,11,39,13,943.175231933594,324.749481201172,1,0,NaN,NaN,1,1,faces,P,male,VS,F,40,E05,163.970703125
0,1,1,24367,0.26171875,0.115234375,1,1,12,41,2,920.605590820312,560.146118164062,0,1,faces,female,0,1,faces,A,female,VS,F,41,E05,168.169921875
0,1,0,24369,0.62109375,0.169921875,2,1,13,42,4,950.62158203125,649.066711425781,0,1,faces,female,0,1,faces,A,female,VS,F,41,E05,168.169921875
0,1,1,24370,0.85546875,0.158203125,3,1,2,7,5,563.29150390625,749.640258789062,0,1,faces,female,0,1,faces,A,female,VS,F,41,E05,168.169921875
0,1,0,24372,1.240234375,0.125,4,1,7,17,7,622.239135742188,887.951721191406,0,1,faces,male,0,1,faces,A,female,VS,F,41,E05,168.169921875
0,1,0,24373,1.400390625,0.1171875,5,0,8,26,8,715.755554199219,865.639282226562,0,1,faces,male,0,1,faces,A,female,VS,F,41,E05,168.169921875
0,1,0,24374,1.576171875,0.1640625,6,0,3,8,9,593.500122070312,870.305786132812,0,1,objects,small,0,1,faces,A,female,VS,F,41,E05,168.169921875
0,1,0,24375,1.79296875,0.1796875,7,0,10,35,10,823.221862792969,864.401306152344,0,1,faces,female,0,1,faces,A,female,VS,F,41,E05,168.169921875
1,1,0,24378,2.357421875,0.11328125,8,0,1,3,13,541.426574707031,346.248687744141,0,1,objects,big,0,1,faces,A,female,VS,F,41,E05,168.169921875
0,1,0,24379,2.5234375,0.166015625,9,0,5,14,14,626.366271972656,518.470520019531,0,1,faces,female,0,1,faces,A,female,VS,F,41,E05,168.169921875
0,1,0,24380,2.7578125,0.189453125,10,0,9,30,15,851.574035644531,341.186248779297,0,1,faces,female,0,1,faces,A,female,VS,F,41,E05,168.169921875
0,1,0,24381,3.009765625,0.14453125,11,0,14,64,16,1254.74291992188,188.243835449219,0,1,objects,big,0,1,faces,A,female,VS,F,41,E05,168.169921875
0,1,0,24382,3.208984375,0.21875,12,0,15,75,17,1348.55395507812,339.250152587891,0,1,faces,male,0,1,faces,A,female,VS,F,41,E05,168.169921875
0,1,0,24383,3.50390625,0.208984375,13,0,4,11,18,614.067199707031,243.391723632812,0,1,objects,small,0,1,faces,A,female,VS,F,41,E05,168.169921875
2,1,0,24384,3.767578125,0.1796875,14,0,1,3,19,514.972595214844,342.511901855469,0,1,objects,big,0,1,faces,A,female,VS,F,41,E05,168.169921875
1,1,1,24404,0.2578125,0.15234375,1,1,7,40,2,932.427612304688,410.178192138672,0,1,faces,female,1,1,faces,P,female,VS,I,42,E05,172.369140625
0,1,0,24406,0.681640625,0.189453125,2,1,6,39,4,968.4091796875,322.423461914062,0,1,faces,male,1,1,faces,P,female,VS,I,42,E05,172.369140625
1,0,0,24407,0.9296875,0.28515625,3,1,4,22,5,768.646911621094,429.210021972656,1,0,NaN,NaN,1,1,faces,P,female,VS,I,42,E05,172.369140625
2,0,0,24408,1.26953125,0.12890625,4,1,7,40,6,960.085510253906,435.457061767578,0,1,faces,female,1,1,faces,P,female,VS,I,42,E05,172.369140625
2,0,1,24409,1.455078125,0.123046875,5,0,4,22,7,751.0927734375,458.184387207031,1,0,NaN,NaN,1,1,faces,P,female,VS,I,42,E05,172.369140625
0,0,1,24412,2.443359375,0.46875,6,0,8,44,10,946.887390136719,873.377807617188,0,1,objects,small,1,1,faces,P,female,VS,I,42,E05,172.369140625
0,0,1,24414,3.126953125,0.212890625,7,0,11,71,12,1249.72827148438,880.151306152344,0,1,faces,male,1,1,faces,P,female,VS,I,42,E05,172.369140625
0,0,1,24416,3.615234375,0.212890625,8,0,3,17,14,655.427062988281,878.455444335938,0,1,objects,big,1,1,faces,P,female,VS,I,42,E05,172.369140625
1,1,0,24434,0.294921875,0.162109375,1,1,8,42,2,961.582763671875,643.779907226562,0,1,faces,female,0,0,faces,A,male,VS,F,43,E05,176.568359375
0,1,0,24435,0.5390625,0.16015625,2,1,15,80,3,1384.07482910156,826.709899902344,0,1,faces,male,0,0,faces,A,male,VS,F,43,E05,176.568359375
0,1,0,24436,0.775390625,0.12109375,3,1,13,54,4,1010.76391601562,964.058288574219,0,1,faces,male,0,0,faces,A,male,VS,F,43,E05,176.568359375
0,1,0,24437,0.927734375,0.166015625,4,1,9,45,5,968.076843261719,963.014343261719,0,1,faces,male,0,0,faces,A,male,VS,F,43,E05,176.568359375
2,1,0,24439,1.42578125,0.16015625,5,0,8,42,7,921.053833007812,621.107177734375,0,1,faces,female,0,0,faces,A,male,VS,F,43,E05,176.568359375
0,1,0,24440,1.619140625,0.125,6,0,5,32,8,865.608825683594,556.3505859375,0,1,objects,big,0,0,faces,A,male,VS,F,43,E05,176.568359375
1,1,0,24442,1.951171875,0.146484375,7,0,7,40,10,975.616638183594,458.431243896484,0,1,faces,female,0,0,faces,A,male,VS,F,43,E05,176.568359375
0,1,0,24443,2.1484375,0.64453125,8,0,4,30,11,857.006042480469,338.224822998047,0,1,faces,female,0,0,faces,A,male,VS,F,43,E05,176.568359375
1,1,0,24444,2.8515625,0.2109375,9,0,10,47,12,1021.91357421875,221.375671386719,0,1,objects,big,0,0,faces,A,male,VS,F,43,E05,176.568359375
0,1,0,24445,3.11328125,0.14453125,10,0,6,38,13,940.688659667969,227.691833496094,0,1,objects,small,0,0,faces,A,male,VS,F,43,E05,176.568359375
2,1,0,24446,3.306640625,0.37890625,11,0,10,47,14,1051.54760742188,248.397216796875,0,1,objects,big,0,0,faces,A,male,VS,F,43,E05,176.568359375
0,1,0,24447,3.744140625,0.201171875,12,0,11,49,15,1052.02001953125,451.690490722656,0,1,faces,female,0,0,faces,A,male,VS,F,43,E05,176.568359375
2,1,0,24448,3.994140625,0.462890625,13,0,7,40,16,947.205871582031,437.438354492188,0,1,faces,female,0,0,faces,A,male,VS,F,43,E05,176.568359375
1,1,1,24464,0.21875,0.3125,1,1,9,51,1,1029.51428222656,644.630126953125,0,1,objects,big,0,0,faces,A,female,VS,I,44,E05,180.767578125
1,1,1,24466,0.783203125,0.232421875,2,1,2,5,3,531.968994140625,527.694091796875,0,1,faces,female,0,0,faces,A,female,VS,I,44,E05,180.767578125
0,1,0,24468,1.29296875,0.185546875,3,1,5,18,5,702.616760253906,987.46337890625,0,1,faces,female,0,0,faces,A,female,VS,I,44,E05,180.767578125
0,1,0,24469,1.52734375,0.34375,4,1,3,9,6,603.53125,969.038635253906,0,1,faces,male,0,0,faces,A,female,VS,I,44,E05,180.767578125
2,1,1,24471,2.052734375,0.21484375,5,0,2,5,8,537.427673339844,542.267761230469,0,1,faces,female,0,0,faces,A,female,VS,I,44,E05,180.767578125
0,1,1,24474,2.634765625,0.232421875,6,0,4,10,11,653.651672363281,138.479202270508,0,1,faces,female,0,0,faces,A,female,VS,I,44,E05,180.767578125
0,1,0,24476,3.091796875,0.171875,7,0,8,38,13,954.499938964844,229.113388061523,0,1,faces,male,0,0,faces,A,female,VS,I,44,E05,180.767578125
2,1,0,24477,3.328125,0.34375,8,0,9,51,14,1059.94482421875,648.920166015625,0,1,objects,big,0,0,faces,A,female,VS,I,44,E05,180.767578125
0,1,0,24478,3.734375,0.287109375,9,0,14,77,15,1367.35021972656,556.652465820312,0,1,faces,female,0,0,faces,A,female,VS,I,44,E05,180.767578125
0,1,0,24499,0.361328125,0.169921875,1,1,6,32,2,846.744079589844,545.367797851562,0,1,faces,male,0,1,faces,A,female,EX,I,45,E05,184.966796875
0,1,0,24500,0.58984375,0.322265625,2,1,5,30,3,814.692321777344,317.683837890625,0,1,faces,male,0,1,faces,A,female,EX,I,45,E05,184.966796875
0,1,0,24501,0.96875,0.3359375,3,1,1,13,4,648.228088378906,434.684051513672,0,1,faces,female,0,1,faces,A,female,EX,I,45,E05,184.966796875
0,1,1,24502,1.36328125,0.140625,4,1,7,42,5,935.360473632812,654.144897460938,0,1,faces,male,0,1,faces,A,female,EX,I,45,E05,184.966796875
0,1,1,24504,1.841796875,0.142578125,5,0,10,60,7,1183.52075195312,646.246154785156,0,1,faces,female,0,1,faces,A,female,EX,I,45,E05,184.966796875
0,1,0,24506,2.181640625,0.349609375,6,0,14,69,9,1281.1796875,633.420654296875,0,1,objects,small,0,1,faces,A,female,EX,I,45,E05,184.966796875
0,1,0,24507,2.591796875,0.328125,7,0,11,62,10,1153.46704101562,863.725341796875,0,1,faces,female,0,1,faces,A,female,EX,I,45,E05,184.966796875
0,1,0,24508,2.953125,0.365234375,8,0,15,72,11,1256.06665039062,963.329956054688,0,1,faces,female,0,1,faces,A,female,EX,I,45,E05,184.966796875
0,1,1,24510,3.75,0.123046875,9,0,8,57,13,1119.19116210938,363.965484619141,0,1,objects,small,0,1,faces,A,female,EX,I,45,E05,184.966796875
0,1,1,24531,0.21875,0.171875,1,1,10,50,1,1036.92333984375,550.127990722656,0,1,faces,male,0,1,faces,A,male,EX,F,46,E05,189.166015625
0,1,1,24533,0.8203125,0.150390625,2,1,15,78,3,1369.4765625,640.316528320312,0,1,objects,big,0,1,faces,A,male,EX,F,46,E05,189.166015625
0,1,0,24535,1.400390625,0.380859375,3,1,12,61,5,1158.74987792969,760.643859863281,0,1,faces,male,0,1,faces,A,male,EX,F,46,E05,189.166015625
0,1,0,24536,1.8359375,0.228515625,4,1,8,43,6,948.843872070312,749.747924804688,0,1,faces,male,0,1,faces,A,male,EX,F,46,E05,189.166015625
0,1,1,24537,2.125,0.123046875,5,0,5,23,7,725.910095214844,507.870574951172,0,1,faces,male,0,1,faces,A,male,EX,F,46,E05,189.166015625
0,1,0,24539,2.462890625,0.62109375,6,0,4,13,9,639.013610839844,428.921539306641,0,1,objects,small,0,1,faces,A,male,EX,F,46,E05,189.166015625
0,1,0,24540,3.138671875,0.32421875,7,0,1,2,10,550.086303710938,238.892974853516,0,1,faces,female,0,1,faces,A,male,EX,F,46,E05,189.166015625
0,1,0,24541,3.525390625,0.244140625,8,0,6,28,11,852.016479492188,121.055992126465,0,1,faces,male,0,1,faces,A,male,EX,F,46,E05,189.166015625
0,1,0,24542,3.822265625,0.52734375,9,0,9,46,12,1037.41796875,126.682090759277,0,1,faces,female,0,1,faces,A,male,EX,F,46,E05,189.166015625
0,1,0,24564,0.37890625,0.1796875,1,1,6,34,2,831.474365234375,766.483459472656,0,1,faces,male,1,1,faces,P,female,VS,F,47,E05,193.365234375
0,1,0,24565,0.6171875,0.13671875,2,1,10,52,3,1060.13244628906,744.911804199219,0,1,objects,big,1,1,faces,P,female,VS,F,47,E05,193.365234375
0,1,0,24566,0.806640625,0.19921875,3,1,12,60,4,1158.10144042969,619.43408203125,0,1,faces,male,1,1,faces,P,female,VS,F,47,E05,193.365234375
0,1,1,24567,1.072265625,0.115234375,4,1,14,72,5,1280.64660644531,975.729736328125,0,1,faces,male,1,1,faces,P,female,VS,F,47,E05,193.365234375
0,1,1,24570,1.560546875,0.16015625,5,0,4,13,8,634.575561523438,413.846038818359,1,0,NaN,NaN,1,1,faces,P,female,VS,F,47,E05,193.365234375
0,0,0,24573,2.287109375,0.24609375,6,0,5,30,11,856.721252441406,323.798919677734,0,1,objects,small,1,1,faces,P,female,VS,F,47,E05,193.365234375
0,0,1,24574,2.626953125,0.177734375,7,0,15,73,12,1311.90112304688,150.948654174805,0,1,objects,big,1,1,faces,P,female,VS,F,47,E05,193.365234375
0,0,0,24576,2.974609375,0.482421875,8,0,7,37,14,939.942932128906,130.957061767578,0,1,faces,male,1,1,faces,P,female,VS,F,47,E05,193.365234375
0,0,1,24577,3.529296875,0.111328125,9,0,11,57,15,1203.47570800781,357.879516601562,0,1,faces,male,1,1,faces,P,female,VS,F,47,E05,193.365234375
0,1,0,24599,0.359375,0.21484375,1,1,8,33,2,851.55712890625,672.544128417969,0,1,faces,female,0,1,objects,A,small,EX,O,48,E05,197.564453125
0,1,0,24600,0.6328125,0.205078125,2,1,5,15,3,635.1416015625,625.057861328125,0,1,objects,small,0,1,objects,A,small,EX,O,48,E05,197.564453125
0,1,1,24602,1.01171875,0.43359375,3,1,3,13,5,654.897827148438,447.398803710938,0,1,faces,male,0,1,objects,A,small,EX,O,48,E05,197.564453125
0,1,0,24603,1.498046875,0.38671875,4,1,4,14,6,650.285766601562,573.496032714844,0,1,objects,big,0,1,objects,A,small,EX,O,48,E05,197.564453125
0,1,0,24605,2.087890625,0.318359375,5,0,6,30,8,865.209045410156,344.322387695312,0,1,faces,female,0,1,objects,A,small,EX,O,48,E05,197.564453125
0,1,0,24606,2.4609375,0.314453125,6,0,9,48,9,1070.55285644531,329.239013671875,0,1,faces,male,0,1,objects,A,small,EX,O,48,E05,197.564453125
0,1,1,24607,2.84375,0.1640625,7,0,13,64,10,1247.62756347656,154.823654174805,0,1,faces,female,0,1,objects,A,small,EX,O,48,E05,197.564453125
0,1,0,24610,3.603515625,0.154296875,8,0,14,69,13,1268.06860351562,655.645385742188,0,1,faces,male,0,1,objects,A,small,EX,O,48,E05,197.564453125
0,1,0,24611,3.8125,0.298828125,9,0,10,51,14,1046.78637695312,630.550231933594,0,1,objects,small,0,1,objects,A,small,EX,O,48,E05,197.564453125
0,1,0,24629,0.365234375,0.111328125,1,1,11,50,4,1091.19055175781,544.857177734375,0,1,objects,big,1,1,faces,P,female,VS,F,49,E05,201.763671875
0,1,1,24632,0.845703125,0.1015625,2,1,3,11,7,664.318420410156,254.312103271484,0,1,faces,male,1,1,faces,P,female,VS,F,49,E05,201.763671875
1,0,0,24634,1.1328125,0.412109375,3,1,5,20,9,763.33203125,230.608535766602,1,0,NaN,NaN,1,1,faces,P,female,VS,F,49,E05,201.763671875
0,0,0,24636,1.734375,0.359375,4,1,7,37,11,979.884399414062,147.590942382812,0,1,faces,male,1,1,faces,P,female,VS,F,49,E05,201.763671875
0,0,1,24637,2.15234375,0.15625,5,0,12,57,12,1145.05480957031,312.457885742188,0,1,faces,male,1,1,faces,P,female,VS,F,49,E05,201.763671875
2,0,1,24639,2.591796875,0.162109375,6,0,5,20,14,718.981506347656,268.814758300781,1,0,NaN,NaN,1,1,faces,P,female,VS,F,49,E05,201.763671875
0,0,1,24641,3.072265625,0.380859375,7,0,2,5,16,561.254821777344,562.944885253906,0,1,objects,small,1,1,faces,P,female,VS,F,49,E05,201.763671875
0,0,0,24643,3.728515625,0.236328125,8,0,4,12,18,610.6044921875,308.136962890625,0,1,faces,male,1,1,faces,P,female,VS,F,49,E05,201.763671875
1,1,1,24660,0.326171875,0.140625,1,1,8,32,2,865.408447265625,517.495361328125,0,1,faces,female,1,0,faces,P,male,VS,F,50,E05,205.962890625
0,1,1,24661,0.52734375,0.177734375,2,1,2,6,3,580.439453125,610.325012207031,0,1,faces,male,1,0,faces,P,male,VS,F,50,E05,205.962890625
0,1,0,24663,1.033203125,0.177734375,3,1,1,4,5,567.931518554688,426.605712890625,0,1,objects,small,1,0,faces,P,male,VS,F,50,E05,205.962890625
0,1,0,24664,1.236328125,0.203125,4,1,4,12,6,645.930114746094,328.364959716797,0,1,faces,female,1,0,faces,P,male,VS,F,50,E05,205.962890625
0,1,0,24665,1.4765625,0.234375,5,0,3,11,7,665.693725585938,226.758697509766,0,1,faces,male,1,0,faces,P,male,VS,F,50,E05,205.962890625
0,1,1,24668,2.10546875,0.2421875,6,0,14,67,10,1286.06091308594,401.607849121094,0,1,faces,male,1,0,faces,P,male,VS,F,50,E05,205.962890625
1,1,0,24670,2.60546875,0.11328125,7,0,15,71,12,1228.64318847656,845.889892578125,1,0,NaN,NaN,1,0,faces,P,male,VS,F,50,E05,205.962890625
0,1,0,24671,2.765625,0.109375,8,0,13,62,13,1177.55004882812,860.146545410156,0,1,objects,small,1,0,faces,P,male,VS,F,50,E05,205.962890625
2,0,0,24672,2.92578125,0.658203125,9,0,15,71,14,1278.67883300781,872.705017089844,1,0,NaN,NaN,1,0,faces,P,male,VS,F,50,E05,205.962890625
2,0,1,24673,3.654296875,0.140625,10,0,8,32,15,824.079772949219,567.817077636719,0,1,faces,female,1,0,faces,P,male,VS,F,50,E05,205.962890625
1,1,0,24685,0.400390625,0.171875,1,1,9,50,2,1086.28784179688,542.302307128906,0,1,faces,female,0,1,faces,A,male,EX,F,51,E05,210.162109375
1,1,0,24686,0.62890625,0.1640625,2,1,4,32,3,855.529479980469,556.226684570312,0,1,faces,male,0,1,faces,A,male,EX,F,51,E05,210.162109375
0,1,0,24687,0.849609375,0.203125,3,1,3,30,4,877.457946777344,351.746246337891,0,1,objects,small,0,1,faces,A,male,EX,F,51,E05,210.162109375
2,1,1,24688,1.107421875,0.109375,4,1,4,32,5,892.175842285156,539.934875488281,0,1,faces,male,0,1,faces,A,male,EX,F,51,E05,210.162109375
2,1,1,24690,1.736328125,0.125,5,0,9,50,7,1086.69165039062,564.873962402344,0,1,faces,female,0,1,faces,A,male,EX,F,51,E05,210.162109375
0,1,0,24692,2.05078125,0.404296875,6,0,12,60,9,1182.44604492188,639.335388183594,0,1,objects,small,0,1,faces,A,male,EX,F,51,E05,210.162109375
0,1,0,24693,2.517578125,0.287109375,7,0,5,35,10,862.85546875,859.565795898438,0,1,faces,male,0,1,faces,A,male,EX,F,51,E05,210.162109375
0,1,0,24694,2.884765625,0.232421875,8,0,1,9,11,537.553588867188,945.263061523438,0,1,objects,small,0,1,faces,A,male,EX,F,51,E05,210.162109375
0,1,1,24695,3.19140625,0.130859375,9,0,10,53,12,1019.32275390625,830.974731445312,0,1,objects,big,0,1,faces,A,male,EX,F,51,E05,210.162109375
0,1,0,24698,3.8203125,0.10546875,10,0,15,71,15,1294.78662109375,852.090209960938,0,1,faces,female,0,1,faces,A,male,EX,F,51,E05,210.162109375
0,1,1,24713,0.388671875,0.138671875,1,1,7,42,2,942.264221191406,631.5654296875,0,1,faces,female,0,0,faces,A,female,EX,I,52,E05,214.361328125
0,1,0,24715,0.78515625,0.1875,2,1,1,15,4,667.693054199219,636.064636230469,0,1,faces,female,0,0,faces,A,female,EX,I,52,E05,214.361328125
0,1,1,24717,1.142578125,0.232421875,3,1,6,34,6,855.245666503906,748.918395996094,0,1,faces,female,0,0,faces,A,female,EX,I,52,E05,214.361328125
0,1,1,24718,1.43359375,0.1328125,4,1,9,54,7,1043.6259765625,939.46337890625,0,1,faces,male,0,0,faces,A,female,EX,I,52,E05,214.361328125
1,1,0,24720,1.80859375,0.208984375,5,0,13,72,9,1266.45434570312,959.131042480469,0,1,faces,female,0,0,faces,A,female,EX,I,52,E05,214.361328125
0,1,0,24722,2.236328125,0.2734375,6,0,15,75,11,1354.58996582031,335.467498779297,0,1,faces,male,0,0,faces,A,female,EX,I,52,E05,214.361328125
1,1,0,24723,2.564453125,0.134765625,7,0,10,56,12,1208.22473144531,203.033264160156,0,1,objects,big,0,0,faces,A,female,EX,I,52,E05,214.361328125
2,1,1,24724,2.775390625,0.12890625,8,0,13,72,13,1256.90454101562,980.538513183594,0,1,faces,female,0,0,faces,A,female,EX,I,52,E05,214.361328125
0,1,0,24727,3.7421875,0.169921875,9,0,8,46,16,1049.95642089844,115.739311218262,0,1,faces,male,0,0,faces,A,female,EX,I,52,E05,214.361328125
2,1,0,24728,3.962890625,0.314453125,10,0,10,56,17,1152.12341308594,221.465209960938,0,1,objects,big,0,0,faces,A,female,EX,I,52,E05,214.361328125
0,1,0,24743,0.291015625,0.15234375,1,1,3,6,1,527.106323242188,657.609924316406,0,1,faces,female,0,1,faces,A,male,VS,F,53,E05,218.560546875
0,1,1,24746,0.830078125,0.146484375,2,1,8,36,4,855.185424804688,965.065490722656,0,1,faces,male,0,1,faces,A,male,VS,F,53,E05,218.560546875
0,1,1,24748,1.16015625,0.1875,3,1,11,45,6,959.719482421875,942.376770019531,0,1,faces,female,0,1,faces,A,male,VS,F,53,E05,218.560546875
0,1,1,24753,1.97265625,0.1328125,4,1,1,1,11,569.309814453125,150.359359741211,0,1,faces,male,0,1,faces,A,male,VS,F,53,E05,218.560546875
0,1,0,24755,2.2890625,0.173828125,5,0,7,30,13,858.470703125,316.954010009766,0,1,faces,female,0,1,faces,A,male,VS,F,53,E05,218.560546875
0,1,0,24756,2.51953125,0.154296875,6,0,13,57,14,1139.65197753906,357.225830078125,0,1,faces,male,0,1,faces,A,male,VS,F,53,E05,218.560546875
0,1,0,24757,2.72265625,0.2109375,7,0,12,49,15,1073.62548828125,433.892425537109,0,1,faces,female,0,1,faces,A,male,VS,F,53,E05,218.560546875
0,1,1,24759,3.123046875,0.416015625,8,0,9,37,17,961.12158203125,136.125991821289,0,1,faces,male,0,1,faces,A,male,VS,F,53,E05,218.560546875
0,1,0,24760,3.607421875,0.185546875,9,0,14,68,18,1266.74389648438,569.809265136719,0,1,objects,big,0,1,faces,A,male,VS,F,53,E05,218.560546875
0,1,0,24762,3.943359375,0.12109375,10,0,15,78,20,1394.23840332031,662.735046386719,0,1,objects,small,0,1,faces,A,male,VS,F,53,E05,218.560546875
1,1,0,24781,0.388671875,0.1640625,1,1,5,15,2,635.024230957031,628.644836425781,0,1,faces,female,1,1,objects,P,big,VS,O,54,E05,222.759765625
0,0,1,24783,0.7109375,0.640625,2,1,6,17,4,636.976684570312,860.421997070312,1,0,NaN,NaN,1,1,objects,P,big,VS,O,54,E05,222.759765625
2,0,0,24784,1.3984375,0.1484375,3,1,5,15,5,614.680786132812,613.336669921875,0,1,faces,female,1,1,objects,P,big,VS,O,54,E05,222.759765625
0,0,1,24785,1.59765625,0.11328125,4,1,3,13,6,625.140625,489.923889160156,0,1,faces,female,1,1,objects,P,big,VS,O,54,E05,222.759765625
0,0,0,24787,2.126953125,0.17578125,5,0,1,4,8,554.833435058594,430.666839599609,0,1,faces,male,1,1,objects,P,big,VS,O,54,E05,222.759765625
3,0,1,24788,2.357421875,0.322265625,6,0,5,15,9,650.613586425781,631.128479003906,0,1,faces,female,1,1,objects,P,big,VS,O,54,E05,222.759765625
4,0,1,24791,3.056640625,0.146484375,7,0,5,15,12,650.727600097656,647.528930664062,0,1,faces,female,1,1,objects,P,big,VS,O,54,E05,222.759765625
0,0,0,24793,3.83984375,0.451171875,8,0,2,6,14,553.649230957031,653.457580566406,0,1,faces,male,1,1,objects,P,big,VS,O,54,E05,222.759765625
0,1,0,24817,0.412109375,0.1640625,1,1,5,25,2,773.978637695312,772.262023925781,0,1,faces,male,0,1,objects,A,small,VS,O,55,E05,226.958984375
0,1,0,24821,1.173828125,0.1640625,2,1,10,48,6,1059.3076171875,329.682891845703,0,1,objects,small,0,1,objects,A,small,VS,O,55,E05,226.958984375
1,1,0,24822,1.396484375,0.138671875,3,1,7,32,7,889.254272460938,524.162780761719,0,1,objects,small,0,1,objects,A,small,VS,O,55,E05,226.958984375
0,1,0,24823,1.619140625,0.166015625,4,1,6,28,8,844.549194335938,115.549621582031,0,1,objects,small,0,1,objects,A,small,VS,O,55,E05,226.958984375
1,1,0,24825,1.9921875,0.10546875,5,0,11,64,10,1266.67712402344,158.350036621094,0,1,faces,female,0,1,objects,A,small,VS,O,55,E05,226.958984375
0,1,0,24826,2.158203125,0.197265625,6,0,15,76,11,1356.42919921875,396.432983398438,0,1,faces,male,0,1,objects,A,small,VS,O,55,E05,226.958984375
0,1,0,24827,2.40625,0.14453125,7,0,12,67,12,1293.13000488281,426.288970947266,0,1,objects,big,0,1,objects,A,small,VS,O,55,E05,226.958984375
0,1,1,24828,2.623046875,0.2578125,8,0,13,69,13,1310.43688964844,650.776428222656,0,1,faces,male,0,1,objects,A,small,VS,O,55,E05,226.958984375
2,1,0,24831,3.23828125,0.208984375,9,0,11,64,16,1275.08557128906,121.432388305664,0,1,faces,female,0,1,objects,A,small,VS,O,55,E05,226.958984375
0,1,0,24832,3.52734375,0.107421875,10,0,9,41,17,919.294189453125,505.046264648438,0,1,faces,female,0,1,objects,A,small,VS,O,55,E05,226.958984375
2,1,0,24833,3.666015625,0.130859375,11,0,7,32,18,876.728942871094,527.562133789062,0,1,objects,small,0,1,objects,A,small,VS,O,55,E05,226.958984375
0,1,0,24849,0.267578125,0.228515625,1,1,8,25,1,743.695495605469,742.119140625,0,1,faces,female,0,0,faces,A,male,EX,I,56,E05,231.158203125
0,1,0,24850,0.55078125,0.341796875,2,1,5,17,2,612.177307128906,854.843383789062,0,1,faces,male,0,0,faces,A,male,EX,I,56,E05,231.158203125
0,1,1,24851,0.912109375,0.162109375,3,1,1,8,3,549.171936035156,849.499267578125,0,1,objects,small,0,0,faces,A,male,EX,I,56,E05,231.158203125
0,1,1,24853,1.421875,0.12109375,4,1,9,36,5,873.509582519531,944.47021484375,0,1,faces,female,0,0,faces,A,male,EX,I,56,E05,231.158203125
0,1,0,24855,2.02734375,0.22265625,5,0,4,16,7,706.857116699219,774.332397460938,0,1,faces,male,0,0,faces,A,male,EX,I,56,E05,231.158203125
0,1,0,24856,2.322265625,0.267578125,6,0,10,45,8,944.510375976562,961.713256835938,0,1,objects,small,0,0,faces,A,male,EX,I,56,E05,231.158203125
0,1,0,24858,2.8046875,0.4296875,7,0,11,55,10,1155.03796386719,125.854026794434,0,1,objects,big,0,0,faces,A,male,EX,I,56,E05,231.158203125
0,1,0,24859,3.298828125,0.236328125,8,0,6,19,11,757.85595703125,151.853576660156,0,1,faces,male,0,0,faces,A,male,EX,I,56,E05,231.158203125
0,1,0,24860,3.572265625,0.25390625,9,0,7,20,12,735.986206054688,224.884124755859,0,1,faces,female,0,0,faces,A,male,EX,I,56,E05,231.158203125
0,1,1,24876,0.494140625,0.2421875,1,1,6,32,3,854.019226074219,513.506469726562,0,1,objects,big,0,1,objects,A,big,EX,O,57,E05,235.357421875
0,1,0,24878,1.046875,0.259765625,2,1,1,5,5,564.392395019531,520.757080078125,0,1,objects,big,0,1,objects,A,big,EX,O,57,E05,235.357421875
0,1,0,24879,1.369140625,0.1796875,3,1,2,12,6,637.178405761719,332.798828125,0,1,objects,small,0,1,objects,A,big,EX,O,57,E05,235.357421875
0,1,1,24881,1.716796875,0.13671875,4,1,3,19,8,796.391723632812,128.731948852539,0,1,faces,male,0,1,objects,A,big,EX,O,57,E05,235.357421875
0,1,1,24883,2.49609375,0.126953125,5,0,8,45,10,1009.21081542969,889.586975097656,0,1,faces,female,0,1,objects,A,big,EX,O,57,E05,235.357421875
0,1,0,24886,3.15234375,0.330078125,6,0,13,63,13,1179.68518066406,944.829223632812,0,1,faces,female,0,1,objects,A,big,EX,O,57,E05,235.357421875
0,1,0,24887,3.54296875,0.1328125,7,0,11,53,14,1050.04541015625,796.768005371094,0,1,faces,male,0,1,objects,A,big,EX,O,57,E05,235.357421875
0,1,0,24888,3.70703125,0.228515625,8,0,10,52,15,1054.88220214844,716.702941894531,0,1,objects,big,0,1,objects,A,big,EX,O,57,E05,235.357421875
0,1,0,24889,3.990234375,0.564453125,9,0,7,33,16,867.303894042969,641.572509765625,0,1,objects,small,0,1,objects,A,big,EX,O,57,E05,235.357421875
0,1,1,24908,0.259765625,0.1796875,1,1,3,23,1,744.298645019531,515.163879394531,0,1,objects,small,0,1,faces,A,female,EX,F,58,E05,239.556640625
0,1,0,24910,0.873046875,0.373046875,2,1,2,15,3,636.735534667969,648.496276855469,0,1,objects,small,0,1,faces,A,female,EX,F,58,E05,239.556640625
0,1,1,24912,1.45703125,0.14453125,3,1,7,62,5,1205.52429199219,842.537048339844,0,1,faces,female,0,1,faces,A,female,EX,F,58,E05,239.556640625
0,1,1,24914,1.84375,0.21484375,4,1,15,79,7,1394.57153320312,717.852905273438,0,1,objects,big,0,1,faces,A,female,EX,F,58,E05,239.556640625
0,1,0,24916,2.216796875,0.22265625,5,0,11,68,9,1285.01770019531,506.35205078125,0,1,faces,female,0,1,faces,A,female,EX,F,58,E05,239.556640625
0,1,0,24917,2.498046875,0.107421875,6,0,9,66,10,1212.42102050781,343.920227050781,0,1,faces,female,0,1,faces,A,female,EX,F,58,E05,239.556640625
0,1,0,24918,2.658203125,0.171875,7,0,6,48,11,1073.44873046875,306.372528076172,0,1,faces,female,0,1,faces,A,female,EX,F,58,E05,239.556640625
0,1,0,24919,2.861328125,0.580078125,8,0,5,47,12,1065.3349609375,239.13362121582,0,1,objects,big,0,1,faces,A,female,EX,F,58,E05,239.556640625
0,1,0,24920,3.474609375,0.255859375,9,0,4,46,13,1050.69738769531,148.756744384766,0,1,faces,male,0,1,faces,A,female,EX,F,58,E05,239.556640625
0,1,0,24921,3.791015625,0.220703125,10,0,8,64,14,1256.80920410156,140.325561523438,0,1,faces,female,0,1,faces,A,female,EX,F,58,E05,239.556640625
0,1,0,24939,0.423828125,0.181640625,1,1,4,12,3,660.697509765625,311.695129394531,0,1,faces,male,1,1,faces,P,female,VS,F,59,E05,243.755859375
0,1,0,24942,0.97265625,0.1640625,2,1,10,65,6,1254.81628417969,212.547805786133,0,1,objects,big,1,1,faces,P,female,VS,F,59,E05,243.755859375
0,1,0,24943,1.18359375,0.138671875,3,1,14,74,7,1354.67724609375,214.426681518555,0,1,faces,female,1,1,faces,P,female,VS,F,59,E05,243.755859375
0,1,1,24944,1.388671875,0.109375,4,1,8,50,8,1076.26440429688,494.123870849609,0,1,faces,male,1,1,faces,P,female,VS,F,59,E05,243.755859375
0,1,1,24946,1.751953125,0.1640625,5,0,13,72,10,1305.32263183594,903.223876953125,1,0,NaN,NaN,1,1,faces,P,female,VS,F,59,E05,243.755859375
0,0,0,24948,2.728515625,0.208984375,6,0,9,63,12,1178.61547851562,968.076110839844,0,1,faces,male,1,1,faces,P,female,VS,F,59,E05,243.755859375
1,0,0,24949,3.005859375,0.236328125,7,0,5,16,13,617.520935058594,765.600402832031,0,1,faces,male,1,1,faces,P,female,VS,F,59,E05,243.755859375
0,0,0,24950,3.287109375,0.12109375,8,0,3,7,14,547.392395019531,752.634338378906,0,1,objects,big,1,1,faces,P,female,VS,F,59,E05,243.755859375
2,0,0,24951,3.43359375,0.12109375,9,0,5,16,15,635.305053710938,712.792846679688,0,1,faces,male,1,1,faces,P,female,VS,F,59,E05,243.755859375
0,0,0,24952,3.607421875,0.255859375,10,0,2,5,16,544.244079589844,542.478576660156,0,1,faces,female,1,1,faces,P,female,VS,F,59,E05,243.755859375
0,1,0,24967,0.53515625,0.154296875,1,1,4,26,3,747.179321289062,864.628540039062,0,1,faces,female,1,1,objects,P,small,VS,O,60,E05,247.955078125
1,1,0,24969,0.923828125,0.13671875,2,1,7,30,5,890.845825195312,314.062438964844,0,1,faces,male,1,1,objects,P,small,VS,O,60,E05,247.955078125
1,1,0,24970,1.12109375,0.1328125,3,1,13,66,6,1225.2763671875,348.454650878906,0,1,objects,big,1,1,objects,P,small,VS,O,60,E05,247.955078125
2,1,0,24972,1.43359375,0.130859375,4,1,13,66,8,1263.75744628906,320.158630371094,0,1,objects,big,1,1,objects,P,small,VS,O,60,E05,247.955078125
0,1,1,24973,1.6015625,0.14453125,5,0,12,65,9,1258.43933105469,243.468536376953,1,0,NaN,NaN,1,1,objects,P,small,VS,O,60,E05,247.955078125
0,0,0,24975,2.51953125,0.2109375,6,0,10,56,11,1131.97570800781,224.257095336914,0,1,faces,female,1,1,objects,P,small,VS,O,60,E05,247.955078125
0,0,0,24976,2.7890625,0.3046875,7,0,6,29,12,818.854919433594,243.175537109375,0,1,objects,small,1,1,objects,P,small,VS,O,60,E05,247.955078125
2,0,0,24977,3.140625,0.1953125,8,0,7,30,13,847.877136230469,323.047576904297,0,1,faces,male,1,1,objects,P,small,VS,O,60,E05,247.955078125
0,0,0,24978,3.388671875,0.513671875,9,0,3,20,14,753.024353027344,226.149017333984,0,1,faces,female,1,1,objects,P,small,VS,O,60,E05,247.955078125
0,0,0,24979,3.96484375,0.2734375,10,0,1,12,15,636.644653320312,343.968475341797,0,1,faces,male,1,1,objects,P,small,VS,O,60,E05,247.955078125
0,1,0,24994,0.291015625,0.140625,1,1,2,24,2,772.898803710938,664.933959960938,0,1,faces,male,0,1,objects,A,big,VS,O,61,E05,252.154296875
0,1,0,24995,0.486328125,0.19140625,2,1,5,35,3,870.609069824219,855.027282714844,0,1,faces,male,0,1,objects,A,big,VS,O,61,E05,252.154296875
1,1,0,24996,0.736328125,0.18359375,3,1,9,62,4,1182.26525878906,841.835998535156,0,1,faces,female,0,1,objects,A,big,VS,O,61,E05,252.154296875
0,1,0,24997,0.982421875,0.181640625,4,1,12,68,5,1289.05505371094,570.112854003906,0,1,objects,small,0,1,objects,A,big,VS,O,61,E05,252.154296875
0,1,0,24999,1.341796875,0.134765625,5,0,7,45,7,946.297241210938,905.520141601562,0,1,objects,small,0,1,objects,A,big,VS,O,61,E05,252.154296875
0,1,0,25001,1.728515625,0.126953125,6,0,3,28,9,864.067138671875,119.077743530273,0,1,faces,female,0,1,objects,A,big,VS,O,61,E05,252.154296875
0,1,0,25005,2.36328125,0.228515625,7,0,11,66,13,1264.94592285156,312.828002929688,0,1,objects,big,0,1,objects,A,big,VS,O,61,E05,252.154296875
0,1,1,25008,2.919921875,0.22265625,8,0,10,64,16,1288.67663574219,104.141036987305,0,1,objects,big,0,1,objects,A,big,VS,O,61,E05,252.154296875
0,1,0,25010,3.310546875,0.21484375,9,0,1,19,18,778.213073730469,107.939842224121,0,1,faces,female,0,1,objects,A,big,VS,O,61,E05,252.154296875
0,1,0,25012,3.75390625,0.1484375,10,0,13,69,20,1271.85290527344,649.612365722656,0,1,faces,female,0,1,objects,A,big,VS,O,61,E05,252.154296875
2,1,0,25013,3.958984375,0.1796875,11,0,9,62,21,1146.94274902344,861.903259277344,0,1,faces,female,0,1,objects,A,big,VS,O,61,E05,252.154296875
1,1,0,25030,0.3828125,0.212890625,1,1,6,32,2,853.850219726562,540.856567382812,0,1,faces,male,0,1,objects,A,small,EX,O,62,E05,256.353515625
1,1,0,25032,0.80078125,0.24609375,2,1,5,29,4,859.75927734375,224.086410522461,0,1,objects,big,0,1,objects,A,small,EX,O,62,E05,256.353515625
1,1,0,25033,1.1015625,0.3203125,3,1,9,47,5,1065.005859375,213.74983215332,0,1,faces,male,0,1,objects,A,small,EX,O,62,E05,256.353515625
0,1,0,25034,1.482421875,0.3671875,4,1,12,64,6,1264.83618164062,132.339996337891,0,1,objects,small,0,1,objects,A,small,EX,O,62,E05,256.353515625
2,1,0,25035,1.923828125,0.26953125,5,0,6,32,7,814.951843261719,524.513305664062,0,1,faces,male,0,1,objects,A,small,EX,O,62,E05,256.353515625
0,1,1,25036,2.265625,0.119140625,6,0,7,35,8,843.403076171875,835.497192382812,0,1,faces,female,0,1,objects,A,small,EX,O,62,E05,256.353515625
0,1,1,25038,2.58203125,0.130859375,7,0,10,51,10,1093.09790039062,612.117858886719,0,1,objects,small,0,1,objects,A,small,EX,O,62,E05,256.353515625
3,1,0,25040,2.998046875,0.216796875,8,0,6,32,12,856.760498046875,543.948303222656,0,1,faces,male,0,1,objects,A,small,EX,O,62,E05,256.353515625
2,1,0,25042,3.400390625,0.1640625,9,0,5,29,14,865.075256347656,218.92951965332,0,1,objects,big,0,1,objects,A,small,EX,O,62,E05,256.353515625
2,1,0,25043,3.6171875,0.330078125,10,0,9,47,15,1056.80822753906,219.921524047852,0,1,faces,male,0,1,objects,A,small,EX,O,62,E05,256.353515625
1,1,0,25062,0.240234375,0.17578125,1,1,5,14,2,695.349304199219,583.912170410156,1,0,NaN,NaN,1,1,faces,P,female,VS,I,63,E05,260.552734375
2,0,1,25065,0.83203125,0.419921875,2,1,5,14,5,673.738098144531,557.024658203125,1,0,NaN,NaN,1,1,faces,P,female,VS,I,63,E05,260.552734375
1,0,0,25067,1.478515625,0.26953125,3,1,4,13,7,665.285217285156,437.078918457031,0,1,objects,small,1,1,faces,P,female,VS,I,63,E05,260.552734375
1,0,0,25068,1.787109375,0.259765625,4,1,1,1,8,560.7412109375,185.077682495117,0,1,faces,female,1,1,faces,P,female,VS,I,63,E05,260.552734375
0,0,0,25069,2.060546875,0.7109375,5,0,2,2,9,563.975952148438,218.977096557617,0,1,objects,big,1,1,faces,P,female,VS,I,63,E05,260.552734375
2,0,0,25070,2.82421875,0.310546875,6,0,1,1,10,561.208374023438,130.452529907227,0,1,faces,female,1,1,faces,P,female,VS,I,63,E05,260.552734375
3,0,0,25071,3.201171875,0.10546875,7,0,5,14,11,665.690979003906,500.076416015625,1,0,NaN,NaN,1,1,faces,P,female,VS,I,63,E05,260.552734375
2,0,0,25072,3.32421875,0.158203125,8,0,4,13,12,667.580749511719,452.654907226562,0,1,objects,small,1,1,faces,P,female,VS,I,63,E05,260.552734375
4,0,0,25073,3.53515625,0.7421875,9,0,5,14,13,661.374694824219,548.300964355469,1,0,NaN,NaN,1,1,faces,P,female,VS,I,63,E05,260.552734375
0,1,0,25088,0.59375,0.2265625,1,1,10,58,2,1182.11291503906,417.101593017578,0,1,faces,male,1,1,faces,P,male,VS,I,64,E05,264.751953125
0,1,1,25089,0.8515625,0.134765625,2,1,8,48,3,1070.07177734375,376.944030761719,0,1,faces,male,1,1,faces,P,male,VS,I,64,E05,264.751953125
0,1,0,25091,1.19140625,0.12890625,3,1,13,64,5,1252.75573730469,113.80696105957,0,1,faces,female,1,1,faces,P,male,VS,I,64,E05,264.751953125
0,1,0,25092,1.40625,0.169921875,4,1,2,17,6,621.630432128906,882.686401367188,0,1,faces,female,1,1,faces,P,male,VS,I,64,E05,264.751953125
1,1,0,25093,1.607421875,0.1015625,5,0,1,9,7,598.728210449219,934.274780273438,0,1,faces,female,1,1,faces,P,male,VS,I,64,E05,264.751953125
1,1,1,25094,1.740234375,0.12890625,6,0,3,18,8,613.82421875,898.704345703125,1,0,NaN,NaN,1,1,faces,P,male,VS,I,64,E05,264.751953125
1,0,0,25097,2.609375,0.2109375,7,0,7,45,11,973.232055664062,953.886474609375,0,1,faces,female,1,1,faces,P,male,VS,I,64,E05,264.751953125
2,0,0,25098,2.8828125,0.10546875,8,0,1,9,12,598.124084472656,969.458129882812,0,1,faces,female,1,1,faces,P,male,VS,I,64,E05,264.751953125
2,0,0,25099,3.017578125,0.3515625,9,0,3,18,13,635.866455078125,976.723083496094,1,0,NaN,NaN,1,1,faces,P,male,VS,I,64,E05,264.751953125
2,0,0,25100,3.4296875,0.455078125,10,0,7,45,14,950.723083496094,958.536499023438,0,1,faces,female,1,1,faces,P,male,VS,I,64,E05,264.751953125
3,0,0,25101,3.9453125,0.111328125,11,0,3,18,15,611.742370605469,969.643432617188,1,0,NaN,NaN,1,1,faces,P,male,VS,I,64,E05,264.751953125
1,0,1,25118,0.572265625,0.333984375,1,1,5,26,3,726.693786621094,868.979248046875,1,0,NaN,NaN,1,1,objects,P,small,VS,O,65,E05,268.951171875
0,0,0,25121,1.41796875,0.14453125,2,1,2,8,6,516.760375976562,865.464172363281,0,1,faces,male,1,1,objects,P,small,VS,O,65,E05,268.951171875
2,0,0,25122,1.619140625,0.18359375,3,1,5,26,7,744.51513671875,868.570922851562,1,0,NaN,NaN,1,1,objects,P,small,VS,O,65,E05,268.951171875
1,0,0,25123,1.859375,0.173828125,4,1,3,15,8,672.337280273438,668.7763671875,0,1,faces,male,1,1,objects,P,small,VS,O,65,E05,268.951171875
1,0,0,25124,2.064453125,0.333984375,5,0,4,24,9,727.091430664062,658.688049316406,0,1,objects,big,1,1,objects,P,small,VS,O,65,E05,268.951171875
2,0,0,25125,2.431640625,0.44921875,6,0,3,15,10,647.288391113281,653.6083984375,0,1,faces,male,1,1,objects,P,small,VS,O,65,E05,268.951171875
2,0,1,25126,2.91796875,0.30078125,7,0,4,24,11,757.996520996094,664.042114257812,0,1,objects,big,1,1,objects,P,small,VS,O,65,E05,268.951171875
0,0,0,25128,3.486328125,0.892578125,8,0,8,32,13,846.485046386719,554.911254882812,0,1,objects,big,1,1,objects,P,small,VS,O,65,E05,268.951171875
0,1,0,25146,0.52734375,0.23828125,1,1,5,8,3,533.592102050781,868.396362304688,0,1,faces,female,0,1,faces,A,female,VS,I,66,E05,273.150390625
0,1,0,25147,0.814453125,0.103515625,2,1,4,7,4,519.930480957031,712.693603515625,0,1,objects,small,0,1,faces,A,female,VS,I,66,E05,273.150390625
0,1,0,25148,0.974609375,0.17578125,3,1,3,5,5,557.114624023438,520.480773925781,0,1,faces,male,0,1,faces,A,female,VS,I,66,E05,273.150390625
0,1,0,25149,1.18359375,0.2265625,4,1,2,4,6,560.279174804688,439.087463378906,0,1,faces,male,0,1,faces,A,female,VS,I,66,E05,273.150390625
0,1,0,25150,1.46875,0.240234375,5,0,1,2,7,553.533630371094,213.503219604492,0,1,faces,male,0,1,faces,A,female,VS,I,66,E05,273.150390625
0,1,0,25151,1.796875,0.232421875,6,0,11,65,8,1268.68701171875,232.405090332031,0,1,faces,female,0,1,faces,A,female,VS,I,66,E05,273.150390625
0,1,0,25152,2.06640625,0.134765625,7,0,13,74,9,1363.84838867188,224.284713745117,0,1,objects,big,0,1,faces,A,female,VS,I,66,E05,273.150390625
0,1,0,25153,2.23828125,0.130859375,8,0,12,73,10,1365.01196289062,139.787368774414,0,1,faces,male,0,1,faces,A,female,VS,I,66,E05,273.150390625
1,1,0,25154,2.44140625,0.16015625,9,0,7,41,11,972.073669433594,581.100036621094,0,1,objects,small,0,1,faces,A,female,VS,I,66,E05,273.150390625
0,1,1,25159,3.27734375,0.15234375,10,0,15,81,16,1354.45129394531,970.299987792969,0,1,faces,female,0,1,faces,A,female,VS,I,66,E05,273.150390625
0,1,0,25161,3.587890625,0.125,11,0,8,42,18,943.169311523438,600.744750976562,0,1,objects,big,0,1,faces,A,female,VS,I,66,E05,273.150390625
2,1,0,25162,3.7265625,0.115234375,12,0,7,41,19,947.500244140625,578.138366699219,0,1,objects,small,0,1,faces,A,female,VS,I,66,E05,273.150390625
1,1,0,25177,0.236328125,0.23046875,1,1,6,32,1,849.248107910156,536.956787109375,0,1,objects,small,0,1,faces,A,female,VS,F,67,E05,277.349609375
1,1,1,25179,0.654296875,0.1484375,2,1,4,11,3,664.391418457031,235.967849731445,0,1,faces,male,0,1,faces,A,female,VS,F,67,E05,277.349609375
1,1,1,25180,0.859375,0.12109375,3,1,2,4,4,564.602416992188,401.584259033203,0,1,faces,female,0,1,faces,A,female,VS,F,67,E05,277.349609375
1,1,0,25182,1.162109375,0.181640625,4,1,9,55,6,1181.33386230469,146.188812255859,0,1,faces,female,0,1,faces,A,female,VS,F,67,E05,277.349609375
0,1,0,25183,1.376953125,0.17578125,5,0,10,64,7,1241.29821777344,142.086486816406,0,1,faces,female,0,1,faces,A,female,VS,F,67,E05,277.349609375
2,1,0,25184,1.6015625,0.123046875,6,0,9,55,8,1155.63525390625,153.53288269043,0,1,faces,female,0,1,faces,A,female,VS,F,67,E05,277.349609375
0,1,0,25185,1.810546875,0.146484375,7,0,8,54,9,1078.47595214844,917.030517578125,0,1,faces,male,0,1,faces,A,female,VS,F,67,E05,277.349609375
0,1,0,25186,2.013671875,0.17578125,8,0,7,35,10,864.127319335938,884.817016601562,0,1,faces,female,0,1,faces,A,female,VS,F,67,E05,277.349609375
0,1,0,25188,2.52734375,0.205078125,9,0,11,71,12,1258.13256835938,872.893920898438,0,1,faces,male,0,1,faces,A,female,VS,F,67,E05,277.349609375
0,1,0,25189,2.78125,0.17578125,10,0,12,72,13,1288.05541992188,966.677856445312,0,1,objects,small,0,1,faces,A,female,VS,F,67,E05,277.349609375
2,1,0,25190,3.03125,0.166015625,11,0,6,32,14,820.355163574219,570.585205078125,0,1,objects,small,0,1,faces,A,female,VS,F,67,E05,277.349609375
2,1,0,25192,3.38671875,0.166015625,12,0,2,4,16,569.339477539062,432.812438964844,0,1,faces,female,0,1,faces,A,female,VS,F,67,E05,277.349609375
2,1,1,25193,3.611328125,0.14453125,13,0,4,11,17,614.805480957031,237.017837524414,0,1,faces,male,0,1,faces,A,female,VS,F,67,E05,277.349609375
0,1,0,25195,3.982421875,0.146484375,14,0,1,2,19,567.035949707031,242.49609375,0,1,faces,male,0,1,faces,A,female,VS,F,67,E05,277.349609375
0,1,0,25211,0.208984375,0.14453125,1,1,7,42,1,914.061157226562,595.783325195312,0,1,objects,small,1,0,faces,P,female,VS,I,68,E05,281.548828125
0,1,1,25213,0.515625,0.201171875,2,1,5,22,3,720.035949707031,429.781585693359,0,1,faces,male,1,0,faces,P,female,VS,I,68,E05,281.548828125
0,1,0,25215,0.95703125,0.154296875,3,1,2,5,5,523.004272460938,528.647766113281,0,1,faces,male,1,0,faces,P,female,VS,I,68,E05,281.548828125
0,1,0,25217,1.34765625,0.26953125,4,1,1,1,7,548.9169921875,130.311950683594,0,1,faces,female,1,0,faces,P,female,VS,I,68,E05,281.548828125
0,1,0,25219,1.841796875,0.197265625,5,0,9,48,9,1069.55749511719,341.308471679688,0,1,faces,male,1,0,faces,P,female,VS,I,68,E05,281.548828125
0,1,0,25220,2.09765625,0.16015625,6,0,10,50,10,1048.91174316406,550.613586425781,0,1,objects,big,1,0,faces,P,female,VS,I,68,E05,281.548828125
0,1,1,25221,2.3125,0.12109375,7,0,11,60,11,1203.52673339844,679.521667480469,0,1,faces,female,1,0,faces,P,female,VS,I,68,E05,281.548828125
0,1,0,25223,2.640625,0.1640625,8,0,13,70,13,1291.41271972656,720.97509765625,1,0,NaN,NaN,1,0,faces,P,female,VS,I,68,E05,281.548828125
0,1,0,25224,2.85546875,0.20703125,9,0,14,78,14,1385.02612304688,610.226135253906,0,1,faces,male,1,0,faces,P,female,VS,I,68,E05,281.548828125
0,1,0,25225,3.1328125,0.140625,10,0,15,80,15,1381.99670410156,870.869873046875,0,1,faces,female,1,0,faces,P,female,VS,I,68,E05,281.548828125
0,1,0,25226,3.3359375,0.216796875,11,0,8,44,16,943.16259765625,837.021911621094,0,1,faces,female,1,0,faces,P,female,VS,I,68,E05,281.548828125
0,1,1,25227,3.61328125,0.123046875,12,0,6,41,17,954.866027832031,566.196166992188,0,1,faces,male,1,0,faces,P,female,VS,I,68,E05,281.548828125
0,1,0,25243,0.302734375,0.205078125,1,1,5,31,1,895.83251953125,437.694946289062,0,1,faces,female,1,1,objects,P,big,VS,O,69,E05,285.748046875
0,1,0,25244,0.578125,0.205078125,2,1,4,20,2,751.322387695312,231.630920410156,0,1,faces,male,1,1,objects,P,big,VS,O,69,E05,285.748046875
0,1,0,25246,0.96484375,0.228515625,3,1,9,46,4,1034.03173828125,137.028167724609,0,1,faces,male,1,1,objects,P,big,VS,O,69,E05,285.748046875
0,1,0,25247,1.25,0.10546875,4,1,12,65,5,1255.37048339844,208.905792236328,0,1,objects,small,1,1,objects,P,big,VS,O,69,E05,285.748046875
0,1,0,25249,1.55078125,0.13671875,5,0,14,75,7,1353.32788085938,371.433227539062,0,1,faces,male,1,1,objects,P,big,VS,O,69,E05,285.748046875
0,1,1,25250,1.7578125,0.23046875,6,0,13,69,8,1294.32861328125,618.087524414062,0,1,faces,female,1,1,objects,P,big,VS,O,69,E05,285.748046875
0,1,0,25254,2.544921875,0.10546875,7,0,3,17,12,619.870849609375,857.339965820312,0,1,objects,big,1,1,objects,P,big,VS,O,69,E05,285.748046875
0,0,1,25255,2.720703125,0.919921875,8,0,8,45,13,948.85791015625,952.686889648438,1,0,NaN,NaN,1,1,objects,P,big,VS,O,69,E05,285.748046875
0,1,0,25274,0.224609375,0.134765625,1,1,3,24,1,750.876647949219,628.557678222656,0,1,faces,female,1,1,faces,P,male,VS,F,70,E05,289.947265625
1,1,0,25275,0.41015625,0.14453125,2,1,5,32,2,862.251403808594,530.229187011719,0,1,faces,female,1,1,faces,P,male,VS,F,70,E05,289.947265625
0,1,0,25276,0.615234375,0.140625,3,1,1,8,3,529.045593261719,806.478759765625,0,1,faces,male,1,1,faces,P,male,VS,F,70,E05,289.947265625
