refix,pretarget,multifix,urevent,tonset,dur_added,rank,first_rank,stposrel,stposabs,n,x,y,istarget,isdistractor,distractor_cat,ditractor_atr,trial_targetseen,trial_correct,trial_cat,trial_resp,trial_atr,trial_type,trial_cattype,trial_number,trial_subject,trial_bgn_latency
0,1,0,22649,0.271484375,0.232421875,1,1,8,29,2,866.586791992188,244.71044921875,0,1,objects,big,0,1,faces,A,female,VS,I,1,E08,0.201171875
0,1,0,22650,0.5625,0.28515625,2,1,10,37,3,982.254150390625,123.850891113281,0,1,faces,female,0,1,faces,A,female,VS,I,1,E08,0.201171875
0,1,1,22651,0.884765625,0.35546875,3,1,12,46,4,1060.81774902344,147.132202148438,0,1,faces,female,0,1,faces,A,female,VS,I,1,E08,0.201171875
0,1,1,22653,1.3984375,0.1328125,4,1,1,1,6,530.461547851562,89.8000640869141,0,1,objects,small,0,1,faces,A,female,VS,I,1,E08,0.201171875
0,1,0,22655,1.76171875,0.15234375,5,0,2,4,8,562.200134277344,470.272674560547,0,1,objects,small,0,1,faces,A,female,VS,I,1,E08,0.201171875
0,1,0,22656,1.962890625,0.10546875,6,0,4,13,9,627.092834472656,468.066070556641,0,1,objects,big,0,1,faces,A,female,VS,I,1,E08,0.201171875
1,1,1,22657,2.126953125,0.17578125,7,0,3,6,10,599.502807617188,621.082885742188,0,1,faces,male,0,1,faces,A,female,VS,I,1,E08,0.201171875
0,1,0,22660,2.708984375,0.236328125,8,0,9,33,13,849.278259277344,646.640197753906,0,1,faces,female,0,1,faces,A,female,VS,I,1,E08,0.201171875
0,1,0,22661,3.015625,0.185546875,9,0,13,52,14,1079.92456054688,743.654357910156,0,1,faces,male,0,1,faces,A,female,VS,I,1,E08,0.201171875
0,1,0,22663,3.421875,0.1875,10,0,15,80,16,1380.19445800781,844.477478027344,0,1,objects,big,0,1,faces,A,female,VS,I,1,E08,0.201171875
0,1,0,22664,3.69921875,0.12109375,11,0,7,17,17,612.70703125,870.473327636719,0,1,faces,male,0,1,faces,A,female,VS,I,1,E08,0.201171875
2,1,0,22665,3.8828125,0.41015625,12,0,3,6,18,536.628356933594,659.497924804688,0,1,faces,male,0,1,faces,A,female,VS,I,1,E08,0.201171875
0,1,0,22681,0.255859375,0.13671875,1,1,6,42,2,949.232604980469,611.204956054688,0,1,faces,female,1,1,objects,P,big,VS,O,2,E08,4.400390625
0,1,1,22686,1.236328125,0.11328125,2,1,2,10,7,611.143676757812,90.9015197753906,0,1,faces,male,1,1,objects,P,big,VS,O,2,E08,4.400390625
0,1,0,22688,1.53515625,0.154296875,3,1,8,47,9,1108.53930664062,202.704879760742,0,1,faces,male,1,1,objects,P,big,VS,O,2,E08,4.400390625
0,1,0,22689,1.75390625,0.119140625,4,1,4,39,10,960.906127929688,364.452301025391,0,1,faces,female,1,1,objects,P,big,VS,O,2,E08,4.400390625
0,0,1,22690,1.9296875,0.341796875,5,0,11,58,11,1153.02941894531,443.69482421875,1,0,NaN,NaN,1,1,objects,P,big,VS,O,2,E08,4.400390625
0,0,0,22693,3.359375,0.220703125,6,0,5,41,14,951.666076660156,537.451171875,0,1,faces,male,1,1,objects,P,big,VS,O,2,E08,4.400390625
0,0,0,22695,3.8359375,0.109375,7,0,7,43,16,971.671936035156,733.893432617188,0,1,faces,female,1,1,objects,P,big,VS,O,2,E08,4.400390625
0,1,0,22710,0.3515625,0.107421875,1,1,9,40,2,936.55810546875,400.447509765625,0,1,faces,male,0,1,faces,A,female,EX,F,3,E08,8.599609375
0,1,1,22711,0.52734375,0.1171875,2,1,3,10,3,699.159790039062,142.654602050781,0,1,faces,male,0,1,faces,A,female,EX,F,3,E08,8.599609375
0,1,0,22713,0.873046875,0.28515625,3,1,7,28,5,870.911315917969,110.153594970703,0,1,faces,female,0,1,faces,A,female,EX,F,3,E08,8.599609375
0,1,0,22715,1.416015625,0.345703125,4,1,13,74,7,1381.39404296875,239.804779052734,0,1,faces,female,0,1,faces,A,female,EX,F,3,E08,8.599609375
0,1,1,22718,2.080078125,0.380859375,5,0,14,76,10,1361.7109375,432.173767089844,0,1,objects,big,0,1,faces,A,female,EX,F,3,E08,8.599609375
0,1,1,22721,2.822265625,0.12109375,6,0,11,63,13,1174.46789550781,936.773498535156,0,1,faces,female,0,1,faces,A,female,EX,F,3,E08,8.599609375
0,1,0,22723,3.134765625,0.126953125,7,0,15,78,15,1317.37377929688,649.025512695312,0,1,faces,male,0,1,faces,A,female,EX,F,3,E08,8.599609375
0,1,0,22724,3.29296875,0.10546875,8,0,12,69,16,1281.06921386719,635.959838867188,0,1,objects,small,0,1,faces,A,female,EX,F,3,E08,8.599609375
0,1,1,22725,3.46875,0.171875,9,0,8,34,17,844.073852539062,740.423828125,0,1,faces,female,0,1,faces,A,female,EX,F,3,E08,8.599609375
0,1,0,22728,3.935546875,0.16015625,10,0,6,27,20,752.984741210938,944.340393066406,0,1,faces,female,0,1,faces,A,female,EX,F,3,E08,8.599609375
1,1,0,22746,0.369140625,0.20703125,1,1,11,57,2,1167.13928222656,388.711883544922,0,1,faces,female,1,1,objects,P,small,VS,O,4,E08,12.798828125
0,1,0,22747,0.638671875,0.173828125,2,1,10,56,3,1156.72351074219,194.510269165039,0,1,objects,small,1,1,objects,P,small,VS,O,4,E08,12.798828125
0,1,0,22748,0.890625,0.134765625,3,1,2,11,4,654.541809082031,221.342391967773,0,1,objects,small,1,1,objects,P,small,VS,O,4,E08,12.798828125
1,1,0,22750,1.326171875,0.14453125,4,1,6,44,6,941.275573730469,873.328796386719,0,1,objects,big,1,1,objects,P,small,VS,O,4,E08,12.798828125
2,1,0,22752,1.634765625,0.1796875,5,0,6,44,8,963.912170410156,831.303833007812,0,1,objects,big,1,1,objects,P,small,VS,O,4,E08,12.798828125
2,1,0,22754,2.013671875,0.13671875,6,0,11,57,10,1199.943359375,385.019134521484,0,1,faces,female,1,1,objects,P,small,VS,O,4,E08,12.798828125
0,0,1,22755,2.216796875,0.212890625,7,0,5,39,11,999.213134765625,308.019470214844,1,0,NaN,NaN,1,1,objects,P,small,VS,O,4,E08,12.798828125
0,1,0,22768,0.40234375,0.13671875,1,1,9,38,2,942.461486816406,259.7353515625,0,1,objects,small,0,1,faces,A,male,EX,F,5,E08,16.998046875
1,1,0,22769,0.62109375,0.1640625,2,1,6,27,3,802.03857421875,893.312866210938,0,1,faces,female,0,1,faces,A,male,EX,F,5,E08,16.998046875
1,1,0,22770,0.8203125,0.125,3,1,8,36,4,846.961853027344,938.993408203125,0,1,faces,male,0,1,faces,A,male,EX,F,5,E08,16.998046875
0,1,0,22773,1.326171875,0.203125,4,1,7,29,7,910.137023925781,207.787338256836,0,1,faces,male,0,1,faces,A,male,EX,F,5,E08,16.998046875
0,1,1,22774,1.59375,0.201171875,5,0,3,19,8,758.479614257812,124.879463195801,0,1,objects,big,0,1,faces,A,male,EX,F,5,E08,16.998046875
1,1,0,22776,2.021484375,0.1796875,6,0,2,13,10,678.886657714844,406.485382080078,0,1,objects,small,0,1,faces,A,male,EX,F,5,E08,16.998046875
0,1,0,22777,2.236328125,0.103515625,7,0,4,22,11,757.480712890625,435.618103027344,0,1,faces,male,0,1,faces,A,male,EX,F,5,E08,16.998046875
2,1,0,22778,2.396484375,0.220703125,8,0,2,13,12,640.29150390625,442.903015136719,0,1,objects,small,0,1,faces,A,male,EX,F,5,E08,16.998046875
0,1,1,22779,2.705078125,0.13671875,9,0,12,68,13,1225.74951171875,584.485900878906,0,1,faces,male,0,1,faces,A,male,EX,F,5,E08,16.998046875
0,1,0,22782,3.224609375,0.263671875,10,0,11,59,16,1187.35388183594,525.847045898438,0,1,faces,female,0,1,faces,A,male,EX,F,5,E08,16.998046875
2,1,1,22783,3.568359375,0.12890625,11,0,8,36,17,839.537963867188,923.720275878906,0,1,faces,male,0,1,faces,A,male,EX,F,5,E08,16.998046875
2,1,0,22785,3.94140625,0.22265625,12,0,6,27,19,757.151062011719,955.400451660156,0,1,faces,female,0,1,faces,A,male,EX,F,5,E08,16.998046875
1,1,0,22803,0.384765625,0.169921875,1,1,9,48,3,1049.47875976562,312.454681396484,0,1,faces,male,1,0,faces,P,male,VS,I,6,E08,21.197265625
0,1,0,22804,0.6171875,0.111328125,2,1,7,38,4,947.358154296875,215.084686279297,0,1,objects,small,1,0,faces,P,male,VS,I,6,E08,21.197265625
0,1,0,22805,0.78515625,0.15625,3,1,12,56,5,1178.65490722656,228.784881591797,1,0,NaN,NaN,1,0,faces,P,male,VS,I,6,E08,21.197265625
0,1,0,22807,1.201171875,0.1953125,4,1,15,78,7,1379.31994628906,639.38623046875,0,1,faces,male,1,0,faces,P,male,VS,I,6,E08,21.197265625
1,1,0,22808,1.458984375,0.205078125,5,0,10,52,8,1065.31262207031,779.912414550781,0,1,faces,female,1,0,faces,P,male,VS,I,6,E08,21.197265625
2,1,1,22810,1.935546875,0.1640625,6,0,10,52,10,1053.19982910156,689.573303222656,0,1,faces,female,1,0,faces,P,male,VS,I,6,E08,21.197265625
1,1,0,22812,2.259765625,0.1640625,7,0,2,8,12,589.257934570312,884.8828125,0,1,faces,female,1,0,faces,P,male,VS,I,6,E08,21.197265625
0,1,0,22813,2.45703125,0.19921875,8,0,5,18,13,617.211181640625,939.664428710938,0,1,faces,male,1,0,faces,P,male,VS,I,6,E08,21.197265625
2,1,0,22814,2.697265625,0.31640625,9,0,2,8,14,523.224304199219,857.918762207031,0,1,faces,female,1,0,faces,P,male,VS,I,6,E08,21.197265625
0,1,0,22816,3.279296875,0.21484375,10,0,6,29,16,904.021301269531,218.028991699219,0,1,faces,male,1,0,faces,P,male,VS,I,6,E08,21.197265625
2,1,0,22817,3.548828125,0.259765625,11,0,9,48,17,1070.46069335938,316.615692138672,0,1,faces,male,1,0,faces,P,male,VS,I,6,E08,21.197265625
1,1,0,22830,0.384765625,0.109375,1,1,15,80,2,1330.21313476562,833.55224609375,0,1,faces,male,0,0,objects,P,big,VS,O,7,E08,25.396484375
1,1,0,22831,0.552734375,0.1015625,2,1,11,70,3,1299.36779785156,750.4365234375,0,1,objects,big,0,0,objects,P,big,VS,O,7,E08,25.396484375
2,1,0,22833,0.80859375,0.20703125,3,1,11,70,5,1268.1298828125,784.730163574219,0,1,objects,big,0,0,objects,P,big,VS,O,7,E08,25.396484375
1,1,0,22834,1.06640625,0.140625,4,1,12,71,6,1287.05834960938,840.388000488281,0,1,objects,small,0,0,objects,P,big,VS,O,7,E08,25.396484375
0,1,0,22835,1.2734375,0.142578125,5,0,10,60,7,1140.23278808594,645.149963378906,0,1,objects,small,0,0,objects,P,big,VS,O,7,E08,25.396484375
0,1,0,22836,1.474609375,0.1015625,6,0,9,42,8,918.985290527344,627.546203613281,0,1,faces,female,0,0,objects,P,big,VS,O,7,E08,25.396484375
0,1,0,22838,1.96484375,0.1953125,7,0,1,1,10,548.419860839844,178.183639526367,0,1,faces,female,0,0,objects,P,big,VS,O,7,E08,25.396484375
0,1,0,22839,2.232421875,0.173828125,8,0,4,5,11,572.66015625,544.127624511719,0,1,faces,female,0,0,objects,P,big,VS,O,7,E08,25.396484375
0,1,0,22842,2.76171875,0.236328125,9,0,3,4,14,536.455932617188,420.501708984375,0,1,objects,big,0,0,objects,P,big,VS,O,7,E08,25.396484375
0,1,1,22843,3.103515625,0.119140625,10,0,13,72,15,1307.87744140625,938.266723632812,0,1,faces,male,0,0,objects,P,big,VS,O,7,E08,25.396484375
2,1,0,22845,3.396484375,0.169921875,11,0,15,80,17,1375.98681640625,798.473327636719,0,1,faces,male,0,0,objects,P,big,VS,O,7,E08,25.396484375
3,1,0,22846,3.599609375,0.17578125,12,0,11,70,18,1270.30639648438,789.49609375,0,1,objects,big,0,0,objects,P,big,VS,O,7,E08,25.396484375
2,1,0,22847,3.8046875,0.125,13,0,12,71,19,1282.49401855469,819.733154296875,0,1,objects,small,0,0,objects,P,big,VS,O,7,E08,25.396484375
0,1,0,22858,0.201171875,0.166015625,1,1,9,39,1,917.841186523438,382.4853515625,0,1,faces,female,0,1,faces,P,male,VS,F,8,E08,29.595703125
0,1,0,22860,0.541015625,0.13671875,2,1,4,30,3,859.694213867188,389.615112304688,0,1,objects,big,0,1,faces,P,male,VS,F,8,E08,29.595703125
0,1,0,22861,0.736328125,0.1875,3,1,8,38,4,965.38134765625,208.38655090332,0,1,faces,male,0,1,faces,P,male,VS,F,8,E08,29.595703125
1,1,1,22862,0.990234375,0.15234375,4,1,5,31,5,840.830810546875,431.942047119141,0,1,faces,male,0,1,faces,P,male,VS,F,8,E08,29.595703125
2,1,1,22865,2.326171875,0.12109375,5,0,5,31,8,882.897094726562,427.966827392578,0,1,faces,male,0,1,faces,P,male,VS,F,8,E08,29.595703125
0,1,0,22868,3.0859375,0.21484375,6,0,11,54,11,1076.65014648438,953.009094238281,0,1,faces,male,0,1,faces,P,male,VS,F,8,E08,29.595703125
0,1,1,22869,3.359375,0.126953125,7,0,12,63,12,1168.634765625,916.414733886719,0,1,faces,male,0,1,faces,P,male,VS,F,8,E08,29.595703125
0,1,0,22871,3.76171875,0.232421875,8,0,2,15,14,640.355895996094,641.441528320312,0,1,objects,big,0,1,faces,P,male,VS,F,8,E08,29.595703125
0,1,0,22880,0.294921875,0.23828125,1,1,5,14,1,618.863342285156,542.134399414062,0,1,faces,male,0,1,faces,A,male,EX,I,9,E08,33.794921875
0,1,1,22881,0.60546875,0.14453125,2,1,1,2,2,606.740356445312,226.643188476562,0,1,faces,male,0,1,faces,A,male,EX,I,9,E08,33.794921875
0,1,0,22883,1.30078125,0.1953125,3,1,4,11,4,652.437561035156,209.355834960938,0,1,faces,female,0,1,faces,A,male,EX,I,9,E08,33.794921875
0,1,0,22884,1.5703125,0.134765625,4,1,2,5,5,573.677856445312,578.562316894531,0,1,objects,small,0,1,faces,A,male,EX,I,9,E08,33.794921875
0,1,0,22885,1.755859375,0.40625,5,0,3,6,6,520.351745605469,642.675720214844,0,1,faces,male,0,1,faces,A,male,EX,I,9,E08,33.794921875
0,1,1,22886,2.24609375,0.123046875,6,0,8,43,7,932.548950195312,724.14111328125,0,1,faces,male,0,1,faces,A,male,EX,I,9,E08,33.794921875
0,1,1,22888,2.740234375,0.2265625,7,0,6,35,9,844.201049804688,836.579956054688,0,1,faces,female,0,1,faces,A,male,EX,I,9,E08,33.794921875
0,1,1,22890,3.177734375,0.158203125,8,0,10,62,11,1175.37243652344,829.121337890625,0,1,objects,small,0,1,faces,A,male,EX,I,9,E08,33.794921875
0,1,0,22892,3.638671875,0.298828125,9,0,13,70,13,1298.47155761719,720.200012207031,0,1,faces,female,0,1,faces,A,male,EX,I,9,E08,33.794921875
0,1,0,22893,3.9765625,0.220703125,10,0,15,78,14,1381.05078125,641.407653808594,0,1,faces,male,0,1,faces,A,male,EX,I,9,E08,33.794921875
0,1,0,22911,0.544921875,0.12109375,1,1,10,43,4,982.585998535156,745.950561523438,0,1,faces,male,0,1,faces,A,male,VS,I,10,E08,37.994140625
0,1,0,22912,0.791015625,0.189453125,2,1,3,9,5,520.823120117188,935.275939941406,0,1,faces,female,0,1,faces,A,male,VS,I,10,E08,37.994140625
0,1,0,22913,1.01953125,0.189453125,3,1,2,8,6,514.5029296875,843.701599121094,0,1,faces,male,0,1,faces,A,male,VS,I,10,E08,37.994140625
1,1,1,22914,1.24609375,0.291015625,4,1,1,7,7,523.161926269531,763.675048828125,0,1,faces,male,0,1,faces,A,male,VS,I,10,E08,37.994140625
0,1,0,22916,1.70703125,0.208984375,5,0,4,11,9,659.869812011719,246.723937988281,0,1,faces,male,0,1,faces,A,male,VS,I,10,E08,37.994140625
0,1,0,22917,1.97265625,0.16015625,6,0,8,28,10,868.465148925781,107.564979553223,0,1,objects,small,0,1,faces,A,male,VS,I,10,E08,37.994140625
0,1,0,22918,2.220703125,0.15234375,7,0,14,67,11,1258.8681640625,405.269836425781,0,1,faces,female,0,1,faces,A,male,VS,I,10,E08,37.994140625
0,1,0,22919,2.435546875,0.18359375,8,0,11,47,12,1069.59716796875,221.464340209961,0,1,objects,big,0,1,faces,A,male,VS,I,10,E08,37.994140625
0,1,0,22920,2.6875,0.1484375,9,0,7,22,13,807.309753417969,442.216888427734,0,1,objects,small,0,1,faces,A,male,VS,I,10,E08,37.994140625
1,1,0,22921,2.8984375,0.138671875,10,0,5,14,14,649.791137695312,570.072814941406,0,1,objects,big,0,1,faces,A,male,VS,I,10,E08,37.994140625
0,1,0,22922,3.07421875,0.1328125,11,0,6,15,15,628.999572753906,634.048706054688,0,1,objects,big,0,1,faces,A,male,VS,I,10,E08,37.994140625
2,1,0,22923,3.248046875,0.109375,12,0,5,14,16,634.172058105469,516.881530761719,0,1,objects,big,0,1,faces,A,male,VS,I,10,E08,37.994140625
2,1,1,22925,3.529296875,0.1328125,13,0,1,7,18,531.549438476562,748.625305175781,0,1,faces,male,0,1,faces,A,male,VS,I,10,E08,37.994140625
0,1,0,22937,0.7109375,0.119140625,1,1,13,69,4,1251.94995117188,641.977172851562,0,1,faces,female,1,1,faces,P,female,VS,I,11,E08,42.193359375
0,1,0,22938,0.900390625,0.1875,2,1,7,36,5,869.590026855469,929.066650390625,0,1,objects,small,1,1,faces,P,female,VS,I,11,E08,42.193359375
0,1,0,22940,1.36328125,0.12890625,3,1,9,55,7,1185.91064453125,126.067764282227,0,1,faces,female,1,1,faces,P,female,VS,I,11,E08,42.193359375
0,1,1,22941,1.580078125,0.189453125,4,1,1,14,8,652.206481933594,581.439270019531,1,0,NaN,NaN,1,1,faces,P,female,VS,I,11,E08,42.193359375
0,0,1,22943,2.35546875,0.12890625,5,0,10,57,10,1132.35827636719,350.751098632812,0,1,faces,male,1,1,faces,P,female,VS,I,11,E08,42.193359375
0,0,0,22945,2.876953125,0.2890625,6,0,8,39,12,966.265441894531,316.994873046875,0,1,faces,female,1,1,faces,P,female,VS,I,11,E08,42.193359375
0,0,1,22946,3.232421875,0.193359375,7,0,5,32,13,830.300598144531,533.237976074219,0,1,objects,big,1,1,faces,P,female,VS,I,11,E08,42.193359375
0,1,0,22963,0.259765625,0.1171875,1,1,13,49,1,1028.19567871094,415.623229980469,0,1,faces,male,0,1,objects,A,big,VS,O,12,E08,46.392578125
0,1,0,22968,1.119140625,0.205078125,2,1,11,43,6,938.929443359375,722.308288574219,0,1,objects,big,0,1,objects,A,big,VS,O,12,E08,46.392578125
0,1,0,22969,1.388671875,0.15625,3,1,8,27,7,739.253784179688,914.09130859375,0,1,faces,male,0,1,objects,A,big,VS,O,12,E08,46.392578125
1,1,0,22970,1.640625,0.11328125,4,1,12,47,8,1094.15734863281,217.564071655273,0,1,objects,small,0,1,objects,A,big,VS,O,12,E08,46.392578125
0,1,0,22972,1.98828125,0.119140625,5,0,1,2,10,548.433044433594,208.403991699219,0,1,objects,small,0,1,objects,A,big,VS,O,12,E08,46.392578125
0,1,0,22973,2.173828125,0.25,6,0,3,5,11,544.567993164062,500.668975830078,0,1,objects,big,0,1,objects,A,big,VS,O,12,E08,46.392578125
0,1,0,22974,2.51953125,0.169921875,7,0,15,77,12,1368.01293945312,506.841186523438,0,1,faces,female,0,1,objects,A,big,VS,O,12,E08,46.392578125
2,1,0,22976,2.916015625,0.185546875,8,0,12,47,14,1058.51550292969,229.947937011719,0,1,objects,small,0,1,objects,A,big,VS,O,12,E08,46.392578125
0,1,0,22977,3.166015625,0.1171875,9,0,9,30,15,836.336730957031,323.036071777344,0,1,faces,female,0,1,objects,A,big,VS,O,12,E08,46.392578125
0,1,0,22978,3.318359375,0.181640625,10,0,5,21,16,767.106323242188,320.878326416016,0,1,objects,big,0,1,objects,A,big,VS,O,12,E08,46.392578125
0,1,0,22994,0.728515625,0.154296875,1,1,6,31,5,870.089416503906,457.604888916016,0,1,faces,male,0,1,faces,P,female,VS,I,13,E08,50.591796875
1,1,0,22995,0.93359375,0.103515625,2,1,9,41,6,965.24658203125,526.368896484375,0,1,faces,male,0,1,faces,P,female,VS,I,13,E08,50.591796875
0,1,0,22996,1.111328125,0.232421875,3,1,2,5,7,525.634948730469,518.910217285156,0,1,faces,female,0,1,faces,P,female,VS,I,13,E08,50.591796875
0,1,1,22997,1.41015625,0.146484375,4,1,5,22,8,794.541015625,422.544372558594,0,1,faces,male,0,1,faces,P,female,VS,I,13,E08,50.591796875
0,1,0,22999,1.77734375,0.14453125,5,0,8,37,10,998.578308105469,90.9397811889648,0,1,objects,big,0,1,faces,P,female,VS,I,13,E08,50.591796875
0,1,0,23000,1.99609375,0.11328125,6,0,1,2,11,563.960571289062,198.381896972656,0,1,objects,small,0,1,faces,P,female,VS,I,13,E08,50.591796875
0,1,0,23002,2.375,0.10546875,7,0,15,75,13,1375.69213867188,298.523895263672,0,1,faces,female,0,1,faces,P,female,VS,I,13,E08,50.591796875
0,1,0,23004,2.775390625,0.125,8,0,10,45,15,934.002136230469,909.772888183594,0,1,faces,male,0,1,faces,P,female,VS,I,13,E08,50.591796875
0,1,0,23005,2.95703125,0.142578125,9,0,7,36,16,846.602966308594,922.742736816406,0,1,faces,female,0,1,faces,P,female,VS,I,13,E08,50.591796875
0,1,0,23006,3.177734375,0.193359375,10,0,13,69,17,1252.47180175781,609.736022949219,0,1,objects,small,0,1,faces,P,female,VS,I,13,E08,50.591796875
0,1,0,23007,3.42578125,0.123046875,11,0,14,70,18,1282.44396972656,724.237365722656,0,1,faces,male,0,1,faces,P,female,VS,I,13,E08,50.591796875
2,1,0,23008,3.61328125,0.220703125,12,0,9,41,19,967.422241210938,504.078460693359,0,1,faces,male,0,1,faces,P,female,VS,I,13,E08,50.591796875
1,1,0,23020,0.484375,0.1015625,1,1,4,16,2,691.766845703125,741.436889648438,0,1,faces,male,0,1,objects,A,small,VS,O,14,E08,54.791015625
0,1,0,23022,0.93359375,0.1171875,2,1,7,37,4,940.318115234375,170.723922729492,0,1,faces,male,0,1,objects,A,small,VS,O,14,E08,54.791015625
0,1,1,23024,1.458984375,0.134765625,3,1,8,38,6,935.753540039062,226.476470947266,0,1,objects,big,0,1,objects,A,small,VS,O,14,E08,54.791015625
0,1,0,23029,2.4140625,0.236328125,4,1,15,79,11,1399.42016601562,738.017944335938,0,1,objects,small,0,1,objects,A,small,VS,O,14,E08,54.791015625
0,1,0,23030,2.7109375,0.1796875,5,0,11,60,12,1188.79602050781,623.551208496094,0,1,objects,small,0,1,objects,A,small,VS,O,14,E08,54.791015625
2,1,0,23031,2.966796875,0.2109375,6,0,4,16,13,644.39599609375,750.048278808594,0,1,faces,male,0,1,objects,A,small,VS,O,14,E08,54.791015625
0,1,0,23033,3.416015625,0.119140625,7,0,2,3,15,547.138244628906,313.146484375,0,1,faces,female,0,1,objects,A,small,VS,O,14,E08,54.791015625
0,1,0,23047,0.279296875,0.212890625,1,1,12,55,1,1168.83361816406,128.578979492188,0,1,faces,female,0,0,objects,A,small,EX,O,15,E08,58.990234375
0,1,1,23049,0.791015625,0.173828125,2,1,4,17,3,621.887756347656,854.799011230469,0,1,faces,male,0,0,objects,A,small,EX,O,15,E08,58.990234375
0,1,1,23051,1.21875,0.140625,3,1,5,18,5,657.289855957031,934.9453125,0,1,faces,female,0,0,objects,A,small,EX,O,15,E08,58.990234375
0,1,0,23053,1.703125,0.12890625,4,1,11,53,7,1105.11511230469,810.239074707031,0,1,faces,male,0,0,objects,A,small,EX,O,15,E08,58.990234375
0,1,0,23054,1.853515625,0.310546875,5,0,14,62,8,1172.97033691406,821.249389648438,0,1,objects,big,0,0,objects,A,small,EX,O,15,E08,58.990234375
0,1,1,23055,2.228515625,0.1953125,6,0,10,52,9,1058.78051757812,697.757202148438,0,1,objects,small,0,0,objects,A,small,EX,O,15,E08,58.990234375
0,1,0,23057,2.693359375,0.265625,7,0,8,33,11,858.052734375,619.508239746094,0,1,objects,big,0,0,objects,A,small,EX,O,15,E08,58.990234375
0,1,0,23058,2.994140625,0.259765625,8,0,9,42,12,953.697692871094,606.748046875,0,1,objects,small,0,0,objects,A,small,EX,O,15,E08,58.990234375
0,1,0,23059,3.318359375,0.21875,9,0,3,15,13,643.566284179688,611.35302734375,0,1,faces,female,0,0,objects,A,small,EX,O,15,E08,58.990234375
0,1,0,23060,3.587890625,0.279296875,10,0,2,14,14,642.230407714844,527.687316894531,0,1,faces,male,0,0,objects,A,small,EX,O,15,E08,58.990234375
1,1,0,23070,0.515625,0.15234375,1,1,12,61,2,1154.76538085938,727.198425292969,0,1,faces,male,1,1,faces,P,female,VS,F,16,E08,63.189453125
0,1,0,23072,0.962890625,0.17578125,2,1,9,42,4,933.722473144531,604.613647460938,0,1,faces,male,1,1,faces,P,female,VS,F,16,E08,63.189453125
0,1,0,23073,1.20703125,0.224609375,3,1,7,27,5,755.223693847656,913.361938476562,0,1,faces,male,1,1,faces,P,female,VS,F,16,E08,63.189453125
0,1,0,23074,1.490234375,0.123046875,4,1,10,54,6,1061.33068847656,920.183776855469,0,1,faces,female,1,1,faces,P,female,VS,F,16,E08,63.189453125
0,1,0,23075,1.685546875,0.236328125,5,0,2,7,7,548.274963378906,718.595458984375,0,1,faces,male,1,1,faces,P,female,VS,F,16,E08,63.189453125
0,1,0,23076,1.98828125,0.126953125,6,0,3,9,8,532.288452148438,962.088012695312,0,1,objects,big,1,1,faces,P,female,VS,F,16,E08,63.189453125
0,1,0,23077,2.216796875,0.2265625,7,0,15,78,9,1405.12634277344,612.442077636719,0,1,faces,male,1,1,faces,P,female,VS,F,16,E08,63.189453125
0,1,0,23078,2.48046875,0.15625,8,0,13,68,10,1277.00390625,495.958587646484,1,0,NaN,NaN,1,1,faces,P,female,VS,F,16,E08,63.189453125
1,1,0,23079,2.69921875,0.169921875,9,0,11,60,11,1159.62951660156,618.058471679688,0,1,faces,female,1,1,faces,P,female,VS,F,16,E08,63.189453125
2,1,0,23080,2.91796875,0.19140625,10,0,12,61,12,1166.39099121094,698.615966796875,0,1,faces,male,1,1,faces,P,female,VS,F,16,E08,63.189453125
2,1,0,23081,3.162109375,0.658203125,11,0,11,60,13,1167.623046875,601.576477050781,0,1,faces,female,1,1,faces,P,female,VS,F,16,E08,63.189453125
1,1,0,23086,0.265625,0.158203125,1,1,8,50,1,1055.35729980469,525.159606933594,0,1,faces,female,0,0,faces,A,female,VS,F,17,E08,67.388671875
0,1,1,23087,0.50390625,0.126953125,2,1,2,8,2,572.9638671875,871.457458496094,0,1,objects,big,0,0,faces,A,female,VS,F,17,E08,67.388671875
0,1,0,23089,0.798828125,0.162109375,3,1,3,9,4,525.177429199219,951.472351074219,0,1,faces,male,0,0,faces,A,female,VS,F,17,E08,67.388671875
0,1,1,23090,1.0234375,0.173828125,4,1,1,6,5,514.019897460938,657.826782226562,0,1,faces,male,0,0,faces,A,female,VS,F,17,E08,67.388671875
1,1,0,23092,1.412109375,0.134765625,5,0,10,64,7,1248.1953125,173.993240356445,0,1,faces,female,0,0,faces,A,female,VS,F,17,E08,67.388671875
0,1,0,23093,1.59765625,0.12890625,6,0,12,73,8,1359.29675292969,177.331268310547,0,1,objects,big,0,0,faces,A,female,VS,F,17,E08,67.388671875
2,1,0,23094,1.755859375,0.298828125,7,0,10,64,9,1274.71472167969,125.079849243164,0,1,faces,female,0,0,faces,A,female,VS,F,17,E08,67.388671875
0,1,0,23095,2.119140625,0.154296875,8,0,7,47,10,1082.99084472656,228.780578613281,0,1,faces,female,0,0,faces,A,female,VS,F,17,E08,67.388671875
0,1,0,23096,2.34765625,0.283203125,9,0,13,74,11,1377.12756347656,232.199356079102,0,1,faces,male,0,0,faces,A,female,VS,F,17,E08,67.388671875
0,1,1,23098,2.814453125,0.26953125,10,0,14,76,13,1381.67517089844,432.060546875,0,1,faces,female,0,0,faces,A,female,VS,F,17,E08,67.388671875
0,1,0,23099,3.15625,0.2421875,11,0,9,51,14,1074.92712402344,601.747680664062,0,1,objects,small,0,0,faces,A,female,VS,F,17,E08,67.388671875
2,1,0,23100,3.4375,0.591796875,12,0,8,50,15,1054.94384765625,527.419067382812,0,1,faces,female,0,0,faces,A,female,VS,F,17,E08,67.388671875
0,1,0,23115,0.5625,0.16015625,1,1,7,26,3,735.037963867188,851.492065429688,0,1,faces,female,1,1,faces,P,female,VS,F,18,E08,71.587890625
0,1,1,23116,0.78515625,0.130859375,2,1,11,53,4,1057.27172851562,828.492736816406,1,0,NaN,NaN,1,1,faces,P,female,VS,F,18,E08,71.587890625
1,1,0,23131,0.25,0.22265625,1,1,5,32,1,834.625610351562,548.801635742188,0,1,faces,male,1,1,faces,P,female,VS,F,19,E08,75.787109375
0,1,0,23132,0.5390625,0.208984375,2,1,2,7,2,532.630310058594,743.2568359375,0,1,faces,female,1,1,faces,P,female,VS,F,19,E08,75.787109375
0,1,0,23133,0.810546875,0.18359375,3,1,3,24,3,767.984130859375,608.265625,0,1,faces,female,1,1,faces,P,female,VS,F,19,E08,75.787109375
2,1,0,23134,1.02734375,0.10546875,4,1,5,32,4,842.726867675781,512.951049804688,0,1,faces,male,1,1,faces,P,female,VS,F,19,E08,75.787109375
0,1,1,23135,1.205078125,0.19140625,5,0,6,36,5,893.238586425781,932.970764160156,0,1,faces,female,1,1,faces,P,female,VS,F,19,E08,75.787109375
0,1,1,23137,1.59765625,0.1171875,6,0,12,70,7,1289.86181640625,750.286926269531,0,1,faces,female,1,1,faces,P,female,VS,F,19,E08,75.787109375
0,0,1,23140,2.103515625,0.291015625,7,0,8,46,10,1069.05065917969,115.203140258789,1,0,NaN,NaN,1,1,faces,P,female,VS,F,19,E08,75.787109375
0,1,1,23146,0.306640625,0.154296875,1,1,12,31,1,871.746032714844,475.854217529297,0,1,faces,female,0,1,faces,A,male,VS,F,20,E08,79.986328125
0,1,0,23148,0.8046875,0.12890625,2,1,14,65,3,1281.60705566406,233.190994262695,0,1,faces,female,0,1,faces,A,male,VS,F,20,E08,79.986328125
1,1,0,23149,1.00390625,0.169921875,3,1,7,20,4,790.749755859375,217.94384765625,0,1,faces,male,0,1,faces,A,male,VS,F,20,E08,79.986328125
0,1,1,23150,1.23828125,0.12109375,4,1,2,2,5,581.405334472656,277.131683349609,0,1,faces,male,0,1,faces,A,male,VS,F,20,E08,79.986328125
2,1,1,23152,1.7890625,0.13671875,5,0,7,20,7,751.585144042969,191.637451171875,0,1,faces,male,0,1,faces,A,male,VS,F,20,E08,79.986328125
0,1,0,23154,2.3046875,0.193359375,6,0,5,12,9,646.750366210938,307.894256591797,0,1,faces,male,0,1,faces,A,male,VS,F,20,E08,79.986328125
0,1,0,23155,2.548828125,0.15625,7,0,3,3,10,547.534484863281,303.058746337891,0,1,objects,small,0,1,faces,A,male,VS,F,20,E08,79.986328125
0,1,0,23157,2.990234375,0.1484375,8,0,8,24,12,738.674987792969,620.153747558594,0,1,faces,female,0,1,faces,A,male,VS,F,20,E08,79.986328125
0,1,1,23158,3.19921875,0.203125,9,0,9,26,13,743.511169433594,864.239318847656,0,1,faces,female,0,1,faces,A,male,VS,F,20,E08,79.986328125
0,1,0,23160,3.576171875,0.318359375,10,0,10,27,15,748.930114746094,931.119140625,0,1,faces,male,0,1,faces,A,male,VS,F,20,E08,79.986328125
0,1,1,23172,0.326171875,0.197265625,1,1,12,63,3,1208.33740234375,917.008911132812,0,1,faces,male,1,1,objects,P,small,VS,O,21,E08,84.185546875
0,1,0,23174,0.83984375,0.16796875,2,1,13,69,5,1288.04284667969,596.988830566406,0,1,faces,female,1,1,objects,P,small,VS,O,21,E08,84.185546875
0,1,0,23175,1.060546875,0.16796875,3,1,14,77,6,1390.9169921875,519.467590332031,0,1,objects,big,1,1,objects,P,small,VS,O,21,E08,84.185546875
1,1,0,23178,1.6328125,0.15234375,4,1,11,48,9,1100.5703125,303.588226318359,1,0,NaN,NaN,1,1,objects,P,small,VS,O,21,E08,84.185546875
0,1,0,23179,1.87109375,0.15625,5,0,8,36,10,868.633911132812,942.350891113281,0,1,objects,big,1,1,objects,P,small,VS,O,21,E08,84.185546875
2,0,1,23181,2.244140625,0.330078125,6,0,11,48,12,1082.57336425781,300.708465576172,1,0,NaN,NaN,1,1,objects,P,small,VS,O,21,E08,84.185546875
0,1,0,23189,0.208984375,0.2109375,1,1,13,49,1,1087.13159179688,441.003875732422,0,1,faces,male,0,1,objects,A,big,EX,O,22,E08,88.384765625
0,1,1,23190,0.48828125,0.154296875,2,1,8,31,2,892.918029785156,406.022613525391,0,1,objects,small,0,1,objects,A,big,EX,O,22,E08,88.384765625
0,1,0,23195,1.703125,0.142578125,3,1,12,48,7,1049.46655273438,317.232391357422,0,1,faces,female,0,1,objects,A,big,EX,O,22,E08,88.384765625
0,1,0,23196,1.92578125,0.1953125,4,1,2,5,8,562.263427734375,494.834686279297,0,1,faces,male,0,1,objects,A,big,EX,O,22,E08,88.384765625
0,1,0,23200,2.77734375,0.2265625,5,0,7,30,12,864.921203613281,297.454315185547,0,1,faces,male,0,1,objects,A,big,EX,O,22,E08,88.384765625
0,1,0,23218,0.58984375,0.111328125,1,1,5,25,4,744.099487304688,689.8076171875,0,1,objects,small,1,1,faces,P,female,VS,I,23,E08,92.583984375
0,1,0,23219,0.798828125,0.134765625,2,1,4,18,5,628.638305664062,906.104370117188,0,1,faces,male,1,1,faces,P,female,VS,I,23,E08,92.583984375
0,1,0,23220,0.974609375,0.134765625,3,1,6,27,6,744.250915527344,904.956604003906,0,1,objects,small,1,1,faces,P,female,VS,I,23,E08,92.583984375
0,1,0,23224,1.603515625,0.13671875,4,1,9,35,10,853.665161132812,796.831359863281,0,1,faces,female,1,1,faces,P,female,VS,I,23,E08,92.583984375
0,1,0,23225,1.8203125,0.240234375,5,0,1,4,11,540.293090820312,424.485046386719,0,1,faces,female,1,1,faces,P,female,VS,I,23,E08,92.583984375
0,0,1,23228,2.45703125,0.234375,6,0,14,55,14,1162.375,110.088516235352,1,0,NaN,NaN,1,1,faces,P,female,VS,I,23,E08,92.583984375
0,1,1,23236,0.630859375,0.3671875,1,1,2,7,3,512.815673828125,730.51123046875,0,1,faces,female,0,1,faces,A,female,EX,I,24,E08,96.783203125
0,1,0,23238,1.201171875,0.546875,2,1,3,15,5,634.757385253906,610.196228027344,0,1,objects,small,0,1,faces,A,female,EX,I,24,E08,96.783203125
0,1,0,23239,1.853515625,0.130859375,3,1,13,78,6,1345.65197753906,688.204162597656,0,1,objects,small,0,1,faces,A,female,EX,I,24,E08,96.783203125
0,1,0,23241,2.400390625,0.125,4,1,5,34,8,887.922607421875,787.499755859375,0,1,faces,male,0,1,faces,A,female,EX,I,24,E08,96.783203125
0,1,0,23247,3.404296875,0.23046875,5,0,12,76,14,1408.11474609375,405.687622070312,0,1,faces,female,0,1,faces,A,female,EX,I,24,E08,96.783203125
1,0,1,23257,0.2890625,0.380859375,1,1,2,6,2,546.209228515625,651.2197265625,1,0,NaN,NaN,1,1,faces,P,female,VS,F,25,E08,100.982421875
0,0,0,23259,1.052734375,0.19140625,2,1,7,52,4,1024.59191894531,703.202880859375,0,1,objects,big,1,1,faces,P,female,VS,F,25,E08,100.982421875
2,0,1,23260,1.3203125,0.201171875,3,1,2,6,5,580.191772460938,642.943786621094,1,0,NaN,NaN,1,1,faces,P,female,VS,F,25,E08,100.982421875
1,1,0,23267,0.318359375,0.130859375,1,1,11,68,2,1277.52465820312,560.867614746094,1,0,NaN,NaN,1,1,faces,P,female,VS,F,26,E08,105.181640625
0,1,0,23268,0.51171875,0.11328125,2,1,10,66,3,1285.96459960938,346.689178466797,0,1,faces,male,1,1,faces,P,female,VS,F,26,E08,105.181640625
2,0,1,23270,0.802734375,0.48046875,3,1,11,68,5,1304.28552246094,545.182189941406,1,0,NaN,NaN,1,1,faces,P,female,VS,F,26,E08,105.181640625
0,0,0,23272,1.732421875,0.193359375,4,1,14,79,7,1324.734375,730.379638671875,0,1,faces,male,1,1,faces,P,female,VS,F,26,E08,105.181640625
3,0,1,23274,2.216796875,0.130859375,5,0,11,68,9,1216.37707519531,506.447998046875,1,0,NaN,NaN,1,1,faces,P,female,VS,F,26,E08,105.181640625
0,0,0,23276,2.697265625,0.228515625,6,0,7,42,11,981.590454101562,624.029418945312,0,1,faces,male,1,1,faces,P,female,VS,F,26,E08,105.181640625
0,0,1,23277,3.111328125,0.140625,7,0,5,37,12,926.040161132812,171.446044921875,0,1,objects,big,1,1,faces,P,female,VS,F,26,E08,105.181640625
0,0,0,23279,3.42578125,0.130859375,8,0,2,30,14,889.569519042969,341.208068847656,0,1,faces,male,1,1,faces,P,female,VS,F,26,E08,105.181640625
4,0,0,23281,3.771484375,0.25,9,0,11,68,16,1280.59350585938,541.275756835938,1,0,NaN,NaN,1,1,faces,P,female,VS,F,26,E08,105.181640625
0,1,1,23288,0.2734375,0.12109375,1,1,11,58,1,1109.60778808594,489.020141601562,0,1,faces,female,0,1,faces,A,female,VS,I,27,E08,109.380859375
0,1,0,23290,0.64453125,0.119140625,2,1,10,55,3,1169.57666015625,145.901412963867,0,1,faces,male,0,1,faces,A,female,VS,I,27,E08,109.380859375
0,1,0,23292,1.1171875,0.197265625,3,1,4,17,5,641.424133300781,816.537841796875,0,1,faces,female,0,1,faces,A,female,VS,I,27,E08,109.380859375
0,1,0,23293,1.349609375,0.154296875,4,1,3,16,6,651.643432617188,769.874267578125,0,1,faces,female,0,1,faces,A,female,VS,I,27,E08,109.380859375
1,1,1,23294,1.5625,0.138671875,5,0,2,14,7,644.71142578125,581.264831542969,0,1,faces,female,0,1,faces,A,female,VS,I,27,E08,109.380859375
1,1,0,23297,2.07421875,0.130859375,6,0,13,63,10,1189.02368164062,922.8603515625,0,1,faces,male,0,1,faces,A,female,VS,I,27,E08,109.380859375
0,1,0,23299,2.396484375,0.193359375,7,0,15,80,12,1401.01416015625,841.69287109375,0,1,faces,male,0,1,faces,A,female,VS,I,27,E08,109.380859375
2,1,0,23300,2.65234375,0.15625,8,0,13,63,13,1190.64855957031,945.443359375,0,1,faces,male,0,1,faces,A,female,VS,I,27,E08,109.380859375
2,1,1,23301,2.884765625,0.134765625,9,0,2,14,14,670.022216796875,569.018188476562,0,1,faces,female,0,1,faces,A,female,VS,I,27,E08,109.380859375
0,1,1,23304,3.59375,0.1796875,10,0,12,62,17,1183.79846191406,809.122009277344,0,1,faces,male,0,1,faces,A,female,VS,I,27,E08,109.380859375
0,1,1,23305,3.822265625,0.11328125,11,0,14,69,18,1227.3076171875,609.940551757812,0,1,faces,female,0,1,faces,A,female,VS,I,27,E08,109.380859375
1,1,1,23312,0.263671875,0.15625,1,1,10,40,1,1004.052734375,432.029205322266,0,1,faces,female,0,0,faces,A,female,EX,I,28,E08,113.580078125
0,1,1,23314,0.640625,0.14453125,2,1,8,28,3,821.5732421875,113.518577575684,0,1,faces,male,0,0,faces,A,female,EX,I,28,E08,113.580078125
1,1,0,23316,1.3125,0.1171875,3,1,5,19,5,715.399719238281,174.911224365234,0,1,faces,female,0,0,faces,A,female,EX,I,28,E08,113.580078125
0,1,0,23317,1.4609375,0.126953125,4,1,3,11,6,682.058227539062,205.560974121094,0,1,objects,small,0,0,faces,A,female,EX,I,28,E08,113.580078125
2,1,0,23318,1.626953125,0.337890625,5,0,5,19,7,794.165161132812,101.01099395752,0,1,faces,female,0,0,faces,A,female,EX,I,28,E08,113.580078125
2,1,1,23320,2.169921875,0.328125,6,0,10,40,9,990.301635742188,428.662994384766,0,1,faces,female,0,0,faces,A,female,EX,I,28,E08,113.580078125
0,1,0,23321,2.5546875,0.126953125,7,0,12,59,10,1162.98083496094,557.479370117188,0,1,objects,small,0,0,faces,A,female,EX,I,28,E08,113.580078125
0,1,0,23322,2.71875,0.1484375,8,0,11,51,11,1077.5087890625,638.310424804688,0,1,faces,male,0,0,faces,A,female,EX,I,28,E08,113.580078125
0,1,1,23323,2.9375,0.14453125,9,0,4,15,12,649.943908691406,653.495666503906,0,1,faces,female,0,0,faces,A,female,EX,I,28,E08,113.580078125
0,1,0,23325,3.27734375,0.220703125,10,0,1,9,14,540.373229980469,954.417236328125,0,1,faces,male,0,0,faces,A,female,EX,I,28,E08,113.580078125
0,1,0,23326,3.580078125,0.125,11,0,14,71,15,1264.82568359375,824.592224121094,0,1,objects,big,0,0,faces,A,female,EX,I,28,E08,113.580078125
0,1,0,23338,0.880859375,0.1484375,1,1,6,37,4,1004.44757080078,132.688598632812,0,1,faces,female,0,0,faces,P,male,VS,I,29,E08,117.779296875
0,1,0,23339,1.0859375,0.111328125,2,1,9,55,5,1207.72619628906,144.819046020508,0,1,faces,male,0,0,faces,P,male,VS,I,29,E08,117.779296875
0,1,0,23340,1.2578125,0.16015625,3,1,14,75,6,1367.2646484375,291.486511230469,0,1,objects,big,0,0,faces,P,male,VS,I,29,E08,117.779296875
0,1,0,23341,1.439453125,0.119140625,4,1,13,74,7,1313.76831054688,256.238128662109,0,1,faces,male,0,0,faces,P,male,VS,I,29,E08,117.779296875
0,1,0,23342,1.62109375,0.158203125,5,0,8,48,8,1099.60961914062,333.606109619141,0,1,faces,female,0,0,faces,P,male,VS,I,29,E08,117.779296875
0,1,1,23343,1.849609375,0.134765625,6,0,3,22,9,765.829040527344,468.205230712891,0,1,objects,small,0,0,faces,P,male,VS,I,29,E08,117.779296875
0,1,0,23346,2.267578125,0.20703125,7,0,2,16,12,652.557067871094,760.338684082031,0,1,faces,male,0,0,faces,P,male,VS,I,29,E08,117.779296875
0,1,0,23349,2.93359375,0.12109375,8,0,5,34,15,877.539123535156,746.879516601562,0,1,faces,male,0,0,faces,P,male,VS,I,29,E08,117.779296875
0,1,1,23351,3.283203125,0.138671875,9,0,1,11,17,672.363525390625,216.848327636719,0,1,faces,male,0,0,faces,P,male,VS,I,29,E08,117.779296875
1,1,0,23364,0.546875,0.21875,1,1,9,59,3,1187.51184082031,551.934692382812,0,1,faces,male,0,1,faces,A,male,VS,F,30,E08,121.978515625
0,1,0,23365,0.79296875,0.1875,2,1,14,78,4,1348.63159179688,663.740783691406,0,1,faces,female,0,1,faces,A,male,VS,F,30,E08,121.978515625
0,1,0,23366,1.03125,0.134765625,3,1,15,79,5,1404.64978027344,742.39306640625,0,1,faces,male,0,1,faces,A,male,VS,F,30,E08,121.978515625
1,1,0,23367,1.20703125,0.18359375,4,1,13,69,6,1295.4560546875,631.689392089844,0,1,faces,male,0,1,faces,A,male,VS,F,30,E08,121.978515625
0,1,0,23368,1.474609375,0.154296875,5,0,11,64,7,1302.44250488281,160.720413208008,0,1,objects,big,0,1,faces,A,male,VS,F,30,E08,121.978515625
0,1,0,23370,1.86328125,0.134765625,6,0,2,11,9,679.768798828125,215.025802612305,0,1,faces,male,0,1,faces,A,male,VS,F,30,E08,121.978515625
0,1,0,23373,2.380859375,0.294921875,7,0,8,40,12,981.591186523438,432.688781738281,0,1,faces,female,0,1,faces,A,male,VS,F,30,E08,121.978515625
0,1,1,23374,2.76171875,0.130859375,8,0,1,8,13,610.408325195312,843.190063476562,0,1,objects,big,0,1,faces,A,male,VS,F,30,E08,121.978515625
0,1,0,23376,3.125,0.142578125,9,0,10,63,15,1189.61059570312,916.4052734375,0,1,objects,small,0,1,faces,A,male,VS,F,30,E08,121.978515625
2,1,0,23377,3.359375,0.177734375,10,0,13,69,16,1303.78771972656,662.1552734375,0,1,faces,male,0,1,faces,A,male,VS,F,30,E08,121.978515625
2,1,0,23378,3.595703125,0.34765625,11,0,9,59,17,1194.48327636719,552.098693847656,0,1,faces,male,0,1,faces,A,male,VS,F,30,E08,121.978515625
1,1,0,23394,0.509765625,0.140625,1,1,4,17,4,621.192993164062,872.729797363281,0,1,objects,small,0,1,faces,A,male,VS,I,31,E08,126.177734375
0,1,0,23395,0.736328125,0.16796875,2,1,11,49,5,1082.33581542969,431.28564453125,0,1,faces,male,0,1,faces,A,male,VS,I,31,E08,126.177734375
0,1,0,23396,0.939453125,0.12109375,3,1,14,58,6,1172.84899902344,439.910125732422,0,1,faces,female,0,1,faces,A,male,VS,I,31,E08,126.177734375
0,1,0,23399,1.45703125,0.166015625,4,1,13,57,9,1163.98571777344,314.243621826172,0,1,faces,male,0,1,faces,A,male,VS,I,31,E08,126.177734375
0,1,0,23401,1.86328125,0.126953125,5,0,5,20,11,737.507446289062,208.52799987793,0,1,objects,big,0,1,faces,A,male,VS,I,31,E08,126.177734375
0,1,0,23402,2.03515625,0.15234375,6,0,2,11,12,671.883850097656,207.451553344727,0,1,faces,female,0,1,faces,A,male,VS,I,31,E08,126.177734375
1,1,0,23403,2.255859375,0.1875,7,0,1,5,13,558.884216308594,515.323547363281,0,1,faces,male,0,1,faces,A,male,VS,I,31,E08,126.177734375
0,1,0,23404,2.5078125,0.185546875,8,0,8,25,14,735.117980957031,741.850646972656,0,1,objects,big,0,1,faces,A,male,VS,I,31,E08,126.177734375
2,1,0,23406,2.89453125,0.2890625,9,0,1,5,16,554.300109863281,532.0146484375,0,1,faces,male,0,1,faces,A,male,VS,I,31,E08,126.177734375
2,1,0,23407,3.248046875,0.193359375,10,0,4,17,17,663.360534667969,822.312744140625,0,1,objects,small,0,1,faces,A,male,VS,I,31,E08,126.177734375
0,1,1,23408,3.5078125,0.126953125,11,0,12,54,18,1028.41027832031,950.846557617188,0,1,faces,male,0,1,faces,A,male,VS,I,31,E08,126.177734375
0,1,0,23410,3.845703125,0.203125,12,0,9,36,20,874.322204589844,942.154663085938,0,1,faces,female,0,1,faces,A,male,VS,I,31,E08,126.177734375
0,1,0,23420,0.564453125,0.19140625,1,1,10,59,3,1193.12878417969,531.158508300781,0,1,objects,big,1,1,objects,P,small,VS,O,32,E08,130.376953125
0,1,0,23421,0.80859375,0.240234375,2,1,13,69,4,1308.54296875,616.612365722656,0,1,faces,male,1,1,objects,P,small,VS,O,32,E08,130.376953125
0,1,0,23423,1.328125,0.220703125,3,1,11,65,6,1281.78100585938,257.240631103516,0,1,objects,small,1,1,objects,P,small,VS,O,32,E08,130.376953125
0,1,0,23424,1.615234375,0.1484375,4,1,7,46,7,1079.58190917969,123.907699584961,0,1,objects,big,1,1,objects,P,small,VS,O,32,E08,130.376953125
0,1,0,23425,1.837890625,0.263671875,5,0,2,21,8,777.361755371094,358.181365966797,0,1,faces,female,1,1,objects,P,small,VS,O,32,E08,130.376953125
1,1,1,23426,2.13671875,0.14453125,6,0,3,22,9,792.105834960938,426.678863525391,1,0,NaN,NaN,1,1,objects,P,small,VS,O,32,E08,130.376953125
0,1,0,23428,2.4765625,0.13671875,7,0,5,28,11,826.756286621094,147.208786010742,0,1,faces,female,1,1,objects,P,small,VS,O,32,E08,130.376953125
2,0,1,23429,2.677734375,0.2421875,8,0,3,22,12,773.077575683594,429.036071777344,1,0,NaN,NaN,1,1,objects,P,small,VS,O,32,E08,130.376953125
0,1,0,23437,0.2734375,0.130859375,1,1,7,24,1,726.205078125,646.6845703125,0,1,faces,male,0,1,objects,A,big,VS,O,33,E08,134.576171875
0,1,0,23439,0.64453125,0.203125,2,1,14,80,3,1375.15124511719,860.814697265625,0,1,objects,big,0,1,objects,A,big,VS,O,33,E08,134.576171875
0,1,0,23441,1.16015625,0.14453125,3,1,13,74,5,1349.24670410156,255.785293579102,0,1,faces,male,0,1,objects,A,big,VS,O,33,E08,134.576171875
0,1,0,23442,1.373046875,0.17578125,4,1,11,46,6,1040.20666503906,150.075653076172,0,1,faces,male,0,1,objects,A,big,VS,O,33,E08,134.576171875
0,1,0,23444,1.841796875,0.119140625,5,0,12,48,8,1021.76501464844,362.898529052734,0,1,objects,small,0,1,objects,A,big,VS,O,33,E08,134.576171875
0,1,1,23446,2.244140625,0.115234375,6,0,4,15,10,702.077453613281,624.61962890625,0,1,faces,male,0,1,objects,A,big,VS,O,33,E08,134.576171875
0,1,0,23448,2.732421875,0.177734375,7,0,1,1,12,595.2646484375,116.684310913086,0,1,faces,male,0,1,objects,A,big,VS,O,33,E08,134.576171875
0,1,0,23449,2.994140625,0.16796875,8,0,10,38,13,1009.95611572266,220.604354858398,0,1,faces,female,0,1,objects,A,big,VS,O,33,E08,134.576171875
0,1,0,23450,3.2578125,0.162109375,9,0,5,18,14,658.529541015625,951.916137695312,0,1,faces,female,0,1,objects,A,big,VS,O,33,E08,134.576171875
0,1,0,23451,3.4765625,0.1796875,10,0,9,36,15,869.948852539062,938.080505371094,0,1,objects,small,0,1,objects,A,big,VS,O,33,E08,134.576171875
1,1,0,23461,0.681640625,0.130859375,1,1,9,40,4,959.476440429688,439.297485351562,0,1,faces,female,0,1,faces,A,female,VS,F,34,E08,138.775390625
0,1,1,23462,0.892578125,0.123046875,2,1,10,55,5,1209.77111816406,184.964431762695,0,1,faces,female,0,1,faces,A,female,VS,F,34,E08,138.775390625
0,1,0,23465,1.390625,0.212890625,3,1,1,3,8,553.629333496094,300.851623535156,0,1,faces,male,0,1,faces,A,female,VS,F,34,E08,138.775390625
0,1,1,23467,1.775390625,0.171875,4,1,2,4,10,552.240173339844,446.965637207031,0,1,faces,female,0,1,faces,A,female,VS,F,34,E08,138.775390625
0,1,0,23468,2.015625,0.1875,5,0,3,6,11,550.873291015625,684.096374511719,0,1,objects,big,0,1,faces,A,female,VS,F,34,E08,138.775390625
0,1,0,23469,2.240234375,0.103515625,6,0,4,7,12,550.461547851562,762.874389648438,0,1,objects,big,0,1,faces,A,female,VS,F,34,E08,138.775390625
0,1,0,23470,2.396484375,0.193359375,7,0,5,17,13,672.1767578125,869.127197265625,0,1,faces,male,0,1,faces,A,female,VS,F,34,E08,138.775390625
0,1,0,23472,2.861328125,0.18359375,8,0,12,60,15,1186.63403320312,657.088500976562,0,1,faces,female,0,1,faces,A,female,VS,F,34,E08,138.775390625
0,1,1,23475,3.330078125,0.205078125,9,0,13,63,18,1201.59729003906,900.2763671875,0,1,faces,male,0,1,faces,A,female,VS,F,34,E08,138.775390625
2,1,1,23478,3.875,0.14453125,10,0,9,40,21,968.67431640625,427.302185058594,0,1,faces,female,0,1,faces,A,female,VS,F,34,E08,138.775390625
0,1,0,23488,0.404296875,0.142578125,1,1,15,74,2,1358.07373046875,208.890640258789,0,1,faces,female,0,1,objects,A,small,VS,O,35,E08,142.974609375
1,1,0,23489,0.640625,0.201171875,2,1,1,1,3,586.568115234375,174.630401611328,0,1,objects,big,0,1,objects,A,small,VS,O,35,E08,142.974609375
1,1,0,23490,0.888671875,0.140625,3,1,4,11,4,677.913146972656,197.765060424805,0,1,objects,small,0,1,objects,A,small,VS,O,35,E08,142.974609375
2,1,0,23491,1.087890625,0.109375,4,1,1,1,5,582.959411621094,111.971420288086,0,1,objects,big,0,1,objects,A,small,VS,O,35,E08,142.974609375
0,1,0,23492,1.2734375,0.166015625,5,0,9,32,6,826.154968261719,502.359283447266,0,1,objects,small,0,1,objects,A,small,VS,O,35,E08,142.974609375
1,1,0,23494,1.705078125,0.154296875,6,0,8,26,8,765.517150878906,864.4765625,0,1,objects,big,0,1,objects,A,small,VS,O,35,E08,142.974609375
2,1,1,23496,2.09765625,0.119140625,7,0,8,26,10,800.958068847656,848.12939453125,0,1,objects,big,0,1,objects,A,small,VS,O,35,E08,142.974609375
0,1,0,23500,2.787109375,0.1328125,8,0,5,14,14,619.236755371094,516.541137695312,0,1,faces,male,0,1,objects,A,small,VS,O,35,E08,142.974609375
0,1,0,23501,2.98046875,0.111328125,9,0,3,4,15,565.290283203125,414.180328369141,0,1,faces,female,0,1,objects,A,small,VS,O,35,E08,142.974609375
2,1,1,23502,3.1484375,0.1796875,10,0,4,11,16,613.460693359375,240.733657836914,0,1,objects,small,0,1,objects,A,small,VS,O,35,E08,142.974609375
3,1,1,23504,3.595703125,0.30859375,11,0,4,11,18,681.094421386719,209.598251342773,0,1,objects,small,0,1,objects,A,small,VS,O,35,E08,142.974609375
0,1,0,23521,0.333984375,0.150390625,1,1,12,59,2,1122.37353515625,538.156005859375,0,1,faces,female,1,1,objects,P,small,VS,O,36,E08,147.173828125
0,1,0,23523,0.669921875,0.158203125,2,1,11,47,4,1093.49243164062,208.675521850586,0,1,faces,male,1,1,objects,P,small,VS,O,36,E08,147.173828125
0,1,0,23524,0.8984375,0.169921875,3,1,2,10,5,664.475158691406,146.908081054688,0,1,faces,male,1,1,objects,P,small,VS,O,36,E08,147.173828125
0,0,1,23525,1.115234375,0.76953125,4,1,3,11,6,683.447998046875,218.121429443359,1,0,NaN,NaN,1,1,objects,P,small,VS,O,36,E08,147.173828125
0,1,0,23534,0.431640625,0.13671875,1,1,1,5,2,544.03662109375,542.576965332031,0,1,faces,male,0,1,objects,A,small,EX,O,37,E08,151.373046875
0,1,1,23536,0.763671875,0.173828125,2,1,2,17,4,634.847900390625,877.238647460938,0,1,faces,male,0,1,objects,A,small,EX,O,37,E08,151.373046875
0,1,0,23538,1.236328125,0.279296875,3,1,11,62,6,1187.73461914062,840.406433105469,0,1,objects,big,0,1,objects,A,small,EX,O,37,E08,151.373046875
0,1,1,23539,1.54296875,0.45703125,4,1,10,53,7,1085.65661621094,830.09814453125,0,1,objects,small,0,1,objects,A,small,EX,O,37,E08,151.373046875
0,1,1,23545,3.015625,0.1484375,5,0,12,67,13,1295.52368164062,441.476409912109,0,1,faces,female,0,1,objects,A,small,EX,O,37,E08,151.373046875
0,1,0,23546,3.23046875,0.189453125,6,0,8,38,14,995.629333496094,225.905792236328,0,1,faces,female,0,1,objects,A,small,EX,O,37,E08,151.373046875
0,1,0,23547,3.482421875,0.10546875,7,0,4,20,15,790.236999511719,224.788925170898,0,1,faces,male,0,1,objects,A,small,EX,O,37,E08,151.373046875
0,1,0,23548,3.6484375,0.23046875,8,0,9,47,16,1080.64440917969,227.708709716797,0,1,objects,big,0,1,objects,A,small,EX,O,37,E08,151.373046875
0,1,0,23555,0.2265625,0.193359375,1,1,9,43,1,990.425903320312,711.966552734375,0,1,objects,big,0,1,faces,A,female,EX,F,38,E08,155.572265625
0,1,1,23556,0.462890625,0.1875,2,1,7,33,2,829.807556152344,651.909118652344,0,1,faces,female,0,1,faces,A,female,EX,F,38,E08,155.572265625
0,1,1,23558,0.951171875,0.1328125,3,1,4,9,4,537.550476074219,943.594970703125,0,1,faces,male,0,1,faces,A,female,EX,F,38,E08,155.572265625
0,1,0,23560,1.203125,0.203125,4,1,3,7,6,527.525268554688,783.057922363281,0,1,objects,big,0,1,faces,A,female,EX,F,38,E08,155.572265625
0,1,1,23562,1.65234375,0.142578125,5,0,15,77,8,1360.58898925781,534.798583984375,0,1,objects,small,0,1,faces,A,female,EX,F,38,E08,155.572265625
1,1,0,23565,2.587890625,0.20703125,6,0,8,37,11,995.379638671875,132.501098632812,0,1,objects,small,0,1,faces,A,female,EX,F,38,E08,155.572265625
0,1,0,23566,2.833984375,0.23046875,7,0,6,28,12,903.942749023438,115.040893554688,0,1,faces,female,0,1,faces,A,female,EX,F,38,E08,155.572265625
2,1,0,23567,3.1015625,0.287109375,8,0,8,37,13,992.3388671875,119.914993286133,0,1,objects,small,0,1,faces,A,female,EX,F,38,E08,155.572265625
0,1,0,23568,3.4609375,0.3359375,9,0,2,2,14,565.474670410156,203.457550048828,0,1,faces,female,0,1,faces,A,female,EX,F,38,E08,155.572265625
0,0,0,23583,0.421875,5.349609375,1,1,6,33,3,874.331787109375,645.632385253906,1,0,NaN,NaN,1,1,faces,P,female,VS,I,39,E08,159.771484375
0,1,0,23588,0.220703125,0.10546875,1,1,14,69,1,1241.25646972656,608.902893066406,0,1,faces,female,0,1,objects,A,big,EX,O,40,E08,163.970703125
0,1,1,23594,0.958984375,0.1171875,2,1,9,44,7,968.893981933594,835.047241210938,0,1,faces,male,0,1,objects,A,big,EX,O,40,E08,163.970703125
0,1,1,23597,1.44921875,0.11328125,3,1,11,54,10,1092.97241210938,910.792724609375,0,1,objects,big,0,1,objects,A,big,EX,O,40,E08,163.970703125
0,1,1,23600,1.859375,0.13671875,4,1,7,37,13,967.208679199219,130.434066772461,0,1,faces,male,0,1,objects,A,big,EX,O,40,E08,163.970703125
0,1,1,23602,2.37890625,0.240234375,5,0,3,19,15,777.8515625,121.943199157715,0,1,faces,male,0,1,objects,A,big,EX,O,40,E08,163.970703125
0,1,1,23604,2.873046875,0.28515625,6,0,2,3,17,558.974914550781,308.783538818359,0,1,faces,female,0,1,objects,A,big,EX,O,40,E08,163.970703125
0,1,0,23606,3.5234375,0.439453125,7,0,13,57,19,1186.28759765625,343.342529296875,0,1,objects,big,0,1,objects,A,big,EX,O,40,E08,163.970703125
0,1,0,23621,0.673828125,0.154296875,1,1,14,69,4,1295.4619140625,671.353759765625,0,1,faces,female,1,1,faces,P,female,VS,F,41,E08,168.169921875
1,0,0,23622,0.853515625,0.22265625,2,1,13,60,5,1200.42614746094,627.057495117188,1,0,NaN,NaN,1,1,faces,P,female,VS,F,41,E08,168.169921875
2,0,1,23624,1.298828125,0.111328125,3,1,13,60,7,1202.75134277344,669.741577148438,1,0,NaN,NaN,1,1,faces,P,female,VS,F,41,E08,168.169921875
0,0,0,23628,3.64453125,0.16796875,4,1,15,74,11,1385.04479980469,270.184143066406,0,1,faces,female,1,1,faces,P,female,VS,F,41,E08,168.169921875
0,1,0,23638,0.36328125,0.12890625,1,1,8,41,2,958.753845214844,580.643249511719,0,1,faces,male,1,1,faces,P,female,VS,I,42,E08,172.369140625
0,1,0,23640,0.8515625,0.16015625,2,1,1,1,4,600.175170898438,96.5902862548828,0,1,objects,big,1,1,faces,P,female,VS,I,42,E08,172.369140625
1,1,0,23641,1.080078125,0.19140625,3,1,5,22,5,748.804992675781,439.861938476562,1,0,NaN,NaN,1,1,faces,P,female,VS,I,42,E08,172.369140625
0,1,0,23642,1.326171875,0.12109375,4,1,4,14,6,649.821044921875,532.028747558594,0,1,faces,female,1,1,faces,P,female,VS,I,42,E08,172.369140625
2,0,0,23643,1.5,1.2734375,5,0,5,22,7,773.610595703125,444.869964599609,1,0,NaN,NaN,1,1,faces,P,female,VS,I,42,E08,172.369140625
0,0,0,23644,2.85546875,0.125,6,0,7,35,8,830.021118164062,889.141967773438,0,1,faces,female,1,1,faces,P,female,VS,I,42,E08,172.369140625
0,0,1,23647,3.322265625,0.13671875,7,0,9,44,11,976.024658203125,827.716491699219,0,1,faces,female,1,1,faces,P,female,VS,I,42,E08,172.369140625
3,0,0,23648,3.53125,0.130859375,8,0,5,22,12,798.507263183594,419.894439697266,1,0,NaN,NaN,1,1,faces,P,female,VS,I,42,E08,172.369140625
1,1,0,23656,0.375,0.21484375,1,1,9,56,2,1196.25439453125,247.5146484375,0,1,faces,female,0,0,faces,P,female,VS,F,43,E08,176.568359375
1,1,0,23657,0.64453125,0.107421875,2,1,12,66,3,1296.23461914062,312.195373535156,0,1,faces,female,0,0,faces,P,female,VS,F,43,E08,176.568359375
1,1,0,23658,0.810546875,0.171875,3,1,11,64,4,1297.16613769531,159.808227539062,0,1,objects,big,0,0,faces,P,female,VS,F,43,E08,176.568359375
2,1,0,23660,1.240234375,0.15625,4,1,12,66,6,1300.75329589844,330.902130126953,0,1,faces,female,0,0,faces,P,female,VS,F,43,E08,176.568359375
0,1,0,23661,1.474609375,0.236328125,5,0,1,12,7,670.13427734375,320.073303222656,0,1,faces,female,0,0,faces,P,female,VS,F,43,E08,176.568359375
0,1,0,23663,1.958984375,0.107421875,6,0,3,16,9,660.335998535156,734.118347167969,0,1,objects,big,0,0,faces,P,female,VS,F,43,E08,176.568359375
0,1,0,23664,2.125,0.17578125,7,0,6,33,10,872.330627441406,657.480651855469,0,1,faces,female,0,0,faces,P,female,VS,F,43,E08,176.568359375
0,1,0,23666,2.494140625,0.341796875,8,0,10,60,12,1188.92468261719,642.469360351562,0,1,faces,male,0,0,faces,P,female,VS,F,43,E08,176.568359375
0,1,0,23669,3.23046875,0.23046875,9,0,15,74,15,1377.76806640625,272.090301513672,0,1,faces,female,0,0,faces,P,female,VS,F,43,E08,176.568359375
2,1,0,23670,3.5234375,0.1796875,10,0,9,56,16,1198.50964355469,248.095367431641,0,1,faces,female,0,0,faces,P,female,VS,F,43,E08,176.568359375
2,1,0,23671,3.8125,0.181640625,11,0,11,64,17,1274.44653320312,179.462783813477,0,1,objects,big,0,0,faces,P,female,VS,F,43,E08,176.568359375
1,1,0,23682,0.953125,0.138671875,1,1,4,22,5,765.080871582031,434.797088623047,0,1,objects,small,1,1,objects,P,big,VS,O,44,E08,180.767578125
1,0,1,23683,1.15625,0.314453125,2,1,2,6,6,544.632751464844,627.836975097656,1,0,NaN,NaN,1,1,objects,P,big,VS,O,44,E08,180.767578125
2,0,1,23686,3.166015625,0.11328125,3,1,4,22,9,727.370178222656,469.047332763672,0,1,objects,small,1,1,objects,P,big,VS,O,44,E08,180.767578125
2,0,1,23688,3.576171875,0.19140625,4,1,2,6,11,543.639526367188,665.142883300781,1,0,NaN,NaN,1,1,objects,P,big,VS,O,44,E08,180.767578125
1,1,0,23697,0.3671875,0.19921875,1,1,10,58,2,1189.8271484375,461.298706054688,0,1,objects,small,0,1,faces,A,male,EX,F,45,E08,184.966796875
0,1,0,23699,0.783203125,0.205078125,2,1,9,55,4,1199.35510253906,154.709854125977,0,1,objects,big,0,1,faces,A,male,EX,F,45,E08,184.966796875
0,1,0,23700,1.033203125,0.4296875,3,1,14,73,5,1390.66345214844,166.908004760742,0,1,objects,big,0,1,faces,A,male,EX,F,45,E08,184.966796875
2,1,0,23702,1.70703125,0.234375,4,1,10,58,7,1186.630859375,436.854766845703,0,1,objects,small,0,1,faces,A,male,EX,F,45,E08,184.966796875
0,1,1,23705,2.34375,0.130859375,5,0,11,60,10,1114.24353027344,625.813415527344,0,1,objects,small,0,1,faces,A,male,EX,F,45,E08,184.966796875
0,1,0,23707,3.140625,0.134765625,6,0,6,45,12,1001.92517089844,899.27734375,0,1,faces,male,0,1,faces,A,male,EX,F,45,E08,184.966796875
1,1,0,23708,3.4140625,0.134765625,7,0,8,54,13,1109.18469238281,906.283447265625,0,1,objects,big,0,1,faces,A,male,EX,F,45,E08,184.966796875
2,1,0,23710,3.927734375,0.107421875,8,0,8,54,15,1103.10363769531,918.572082519531,0,1,objects,big,0,1,faces,A,male,EX,F,45,E08,184.966796875
1,0,1,23720,0.376953125,0.3203125,1,1,9,37,2,1003.51702880859,145.723815917969,1,0,NaN,NaN,1,1,objects,P,big,VS,O,46,E08,189.166015625
0,0,1,23724,2.240234375,0.33203125,2,1,4,15,6,651.614135742188,655.533325195312,0,1,faces,female,1,1,objects,P,big,VS,O,46,E08,189.166015625
2,0,0,23726,3.326171875,0.158203125,3,1,9,37,8,969.132446289062,153.795837402344,1,0,NaN,NaN,1,1,objects,P,big,VS,O,46,E08,189.166015625
0,1,1,23737,0.359375,0.236328125,1,1,5,31,3,845.600708007812,432.781677246094,0,1,objects,small,0,0,faces,A,male,EX,I,47,E08,193.365234375
0,1,1,23740,1.306640625,0.1796875,2,1,8,47,6,1070.2900390625,243.582733154297,0,1,objects,big,0,0,faces,A,male,EX,I,47,E08,193.365234375
0,1,1,23743,2.064453125,0.1953125,3,1,14,76,9,1372.06689453125,455.982543945312,0,1,faces,male,0,0,faces,A,male,EX,I,47,E08,193.365234375
0,1,1,23745,2.529296875,0.109375,4,1,15,77,11,1378.09265136719,572.486938476562,0,1,objects,small,0,0,faces,A,male,EX,I,47,E08,193.365234375
0,1,0,23748,3.53125,0.212890625,5,0,13,69,14,1294.36535644531,648.039733886719,0,1,faces,female,0,0,faces,A,male,EX,I,47,E08,193.365234375
0,1,0,23750,3.982421875,0.1796875,6,0,10,54,16,1104.16979980469,940.676940917969,0,1,faces,male,0,0,faces,A,male,EX,I,47,E08,193.365234375
1,1,0,23762,0.51953125,0.1953125,1,1,12,60,1,1194.17736816406,647.276733398438,0,1,faces,female,1,1,faces,P,male,VS,I,48,E08,197.564453125
0,1,0,23766,1.13671875,0.140625,2,1,3,15,5,691.815063476562,651.079284667969,0,1,objects,small,1,1,faces,P,male,VS,I,48,E08,197.564453125
0,1,0,23767,1.3203125,0.115234375,3,1,2,14,6,657.225952148438,584.0009765625,0,1,faces,female,1,1,faces,P,male,VS,I,48,E08,197.564453125
0,1,1,23768,1.4921875,0.236328125,4,1,4,24,7,769.368896484375,677.36962890625,0,1,faces,male,1,1,faces,P,male,VS,I,48,E08,197.564453125
1,1,0,23770,1.92578125,0.10546875,5,0,1,12,9,673.580078125,339.659423828125,0,1,faces,male,1,1,faces,P,male,VS,I,48,E08,197.564453125
2,1,0,23773,2.46875,0.248046875,6,0,1,12,12,672.078491210938,352.478332519531,0,1,faces,male,1,1,faces,P,male,VS,I,48,E08,197.564453125
0,1,0,23774,2.8046875,0.23828125,7,0,11,59,13,1196.36975097656,559.757568359375,0,1,faces,female,1,1,faces,P,male,VS,I,48,E08,197.564453125
2,1,0,23775,3.095703125,0.15625,8,0,12,60,14,1179.48046875,660.743530273438,0,1,faces,female,1,1,faces,P,male,VS,I,48,E08,197.564453125
0,0,0,23776,3.30859375,0.224609375,9,0,14,77,15,1382.46228027344,567.849548339844,1,0,NaN,NaN,1,1,faces,P,male,VS,I,48,E08,197.564453125
3,0,0,23777,3.59375,0.1953125,10,0,12,60,16,1184.11694335938,656.230224609375,0,1,faces,female,1,1,faces,P,male,VS,I,48,E08,197.564453125
0,1,1,23787,0.57421875,0.134765625,1,1,14,75,4,1379.68237304688,382.475524902344,0,1,faces,male,1,1,faces,P,male,VS,F,49,E08,201.763671875
1,0,0,23789,0.912109375,0.240234375,2,1,10,59,6,1165.1064453125,570.195129394531,1,0,NaN,NaN,1,1,faces,P,male,VS,F,49,E08,201.763671875
2,0,0,23791,1.333984375,0.55078125,3,1,10,59,8,1165.64416503906,561.413696289062,1,0,NaN,NaN,1,1,faces,P,male,VS,F,49,E08,201.763671875
0,1,0,23801,0.390625,0.1328125,1,1,13,57,2,1150.84802246094,345.024841308594,0,1,faces,male,1,1,objects,P,small,VS,O,50,E08,205.962890625
0,1,0,23802,0.5859375,0.1015625,2,1,10,46,3,1056.72583007812,170.0556640625,0,1,faces,female,1,1,objects,P,small,VS,O,50,E08,205.962890625
1,1,1,23803,0.751953125,0.15234375,3,1,5,19,4,766.377075195312,167.135787963867,1,0,NaN,NaN,1,1,objects,P,small,VS,O,50,E08,205.962890625
0,0,0,23805,1.4296875,0.73046875,4,1,7,28,6,865.389099121094,114.139610290527,0,1,objects,big,1,1,objects,P,small,VS,O,50,E08,205.962890625
2,0,1,23806,2.216796875,1.146484375,5,0,5,19,7,771.861206054688,115.441696166992,1,0,NaN,NaN,1,1,objects,P,small,VS,O,50,E08,205.962890625
0,1,0,23812,0.353515625,0.14453125,1,1,1,11,1,633.4794921875,232.203018188477,0,1,objects,small,0,1,faces,A,female,EX,F,51,E08,210.162109375
0,1,1,23814,0.71875,0.75,2,1,13,73,3,1375.02587890625,139.94873046875,0,1,faces,male,0,1,faces,A,female,EX,F,51,E08,210.162109375
0,1,1,23815,1.546875,0.150390625,3,1,9,48,4,1029.7275390625,337.380920410156,0,1,faces,female,0,1,faces,A,female,EX,F,51,E08,210.162109375
0,1,0,23817,2.029296875,0.705078125,4,1,5,40,6,944.127014160156,443.108459472656,0,1,faces,male,0,1,faces,A,female,EX,F,51,E08,210.162109375
0,1,0,23818,2.787109375,0.408203125,5,0,6,41,7,936.43115234375,539.407531738281,0,1,faces,female,0,1,faces,A,female,EX,F,51,E08,210.162109375
0,1,0,23819,3.248046875,0.29296875,6,0,11,59,8,1175.34655761719,555.114074707031,0,1,faces,female,0,1,faces,A,female,EX,F,51,E08,210.162109375
0,1,0,23820,3.609375,0.1171875,7,0,4,34,9,887.383483886719,778.003234863281,0,1,faces,female,0,1,faces,A,female,EX,F,51,E08,210.162109375
0,1,0,23832,0.30078125,0.158203125,1,1,6,26,1,728.287353515625,883.211975097656,0,1,objects,small,1,0,faces,P,female,VS,I,52,E08,214.361328125
0,1,0,23834,0.669921875,0.3203125,2,1,2,8,3,606.847106933594,881.611083984375,0,1,objects,small,1,0,faces,P,female,VS,I,52,E08,214.361328125
0,1,0,23837,1.369140625,0.197265625,3,1,5,24,6,710.4951171875,669.0810546875,0,1,faces,male,1,0,faces,P,female,VS,I,52,E08,214.361328125
0,1,0,23838,1.66015625,0.185546875,4,1,13,69,7,1253.16809082031,658.132873535156,0,1,faces,male,1,0,faces,P,female,VS,I,52,E08,214.361328125
1,1,0,23839,1.896484375,0.10546875,5,0,14,78,8,1373.41491699219,660.197570800781,0,1,faces,female,1,0,faces,P,female,VS,I,52,E08,214.361328125
0,1,0,23840,2.068359375,0.13671875,6,0,12,62,9,1204.92041015625,864.275512695312,0,1,faces,male,1,0,faces,P,female,VS,I,52,E08,214.361328125
0,1,0,23842,2.427734375,0.130859375,7,0,15,80,11,1386.25427246094,865.348083496094,0,1,faces,male,1,0,faces,P,female,VS,I,52,E08,214.361328125
2,1,1,23843,2.62109375,0.185546875,8,0,14,78,12,1388.16345214844,675.353088378906,0,1,faces,female,1,0,faces,P,female,VS,I,52,E08,214.361328125
0,0,0,23847,3.546875,0.314453125,9,0,10,57,16,1155.65148925781,339.2958984375,1,0,NaN,NaN,1,0,faces,P,female,VS,I,52,E08,214.361328125
1,1,0,23862,0.39453125,0.140625,1,1,10,58,2,1144.01086425781,401.030731201172,0,1,objects,small,0,1,objects,A,small,VS,O,53,E08,218.560546875
0,1,0,23864,0.8125,0.142578125,2,1,1,2,4,591.782775878906,254.301742553711,0,1,faces,male,0,1,objects,A,small,VS,O,53,E08,218.560546875
0,1,0,23865,1.013671875,0.138671875,3,1,4,19,5,747.717407226562,114.414947509766,0,1,objects,small,0,1,objects,A,small,VS,O,53,E08,218.560546875
0,1,0,23866,1.2421875,0.15625,4,1,14,74,6,1329.96667480469,224.977249145508,0,1,faces,female,0,1,objects,A,small,VS,O,53,E08,218.560546875
0,1,0,23870,2.1328125,0.2265625,5,0,15,81,10,1396.12646484375,959.889038085938,0,1,faces,female,0,1,objects,A,small,VS,O,53,E08,218.560546875
0,1,0,23871,2.51953125,0.2109375,6,0,3,15,11,624.822937011719,683.805969238281,0,1,objects,big,0,1,objects,A,small,VS,O,53,E08,218.560546875
0,1,0,23874,3.0703125,0.12109375,7,0,2,4,14,514.642150878906,422.352630615234,0,1,faces,female,0,1,objects,A,small,VS,O,53,E08,218.560546875
0,1,0,23875,3.283203125,0.1953125,8,0,9,57,15,1144.43615722656,355.467163085938,0,1,faces,male,0,1,objects,A,small,VS,O,53,E08,218.560546875
0,1,0,23876,3.509765625,0.328125,9,0,7,48,16,1059.41625976562,342.779724121094,0,1,objects,big,0,1,objects,A,small,VS,O,53,E08,218.560546875
2,1,0,23877,3.890625,0.146484375,10,0,10,58,17,1164.49987792969,423.398315429688,0,1,objects,small,0,1,objects,A,small,VS,O,53,E08,218.560546875
0,1,1,23882,0.1875,0.140625,1,1,12,50,1,1028.48083496094,515.07568359375,0,1,faces,female,1,1,faces,P,female,VS,F,54,E08,222.759765625
1,1,0,23884,0.48046875,0.173828125,2,1,6,22,3,761.17724609375,467.099945068359,1,0,NaN,NaN,1,1,faces,P,female,VS,F,54,E08,222.759765625
0,1,0,23885,0.701171875,0.123046875,3,1,3,12,4,646.897277832031,355.777862548828,0,1,faces,male,1,1,faces,P,female,VS,F,54,E08,222.759765625
2,0,0,23886,0.875,0.9296875,4,1,6,22,5,728.214111328125,446.620269775391,1,0,NaN,NaN,1,1,faces,P,female,VS,F,54,E08,222.759765625
0,0,0,23887,1.865234375,0.234375,5,0,8,39,6,948.368347167969,352.022064208984,0,1,faces,female,1,1,faces,P,female,VS,F,54,E08,222.759765625
0,0,0,23888,2.16796875,0.1484375,6,0,5,20,7,743.170104980469,222.541839599609,0,1,faces,male,1,1,faces,P,female,VS,F,54,E08,222.759765625
0,0,0,23889,2.380859375,0.1796875,7,0,1,2,8,534.344909667969,239.242095947266,0,1,objects,big,1,1,faces,P,female,VS,F,54,E08,222.759765625
3,0,1,23891,2.755859375,0.14453125,8,0,6,22,10,718.719970703125,418.989410400391,1,0,NaN,NaN,1,1,faces,P,female,VS,F,54,E08,222.759765625
0,1,0,23903,0.650390625,0.189453125,1,1,2,15,4,612.169067382812,638.265258789062,1,0,NaN,NaN,1,1,objects,P,small,VS,O,55,E08,226.958984375
0,1,0,23921,0.51953125,0.205078125,1,1,1,6,3,573.916198730469,680.877014160156,0,1,faces,female,1,1,objects,P,big,VS,O,56,E08,231.158203125
1,1,0,23922,0.8046875,0.17578125,2,1,7,42,4,923.840698242188,646.649108886719,0,1,objects,small,1,1,objects,P,big,VS,O,56,E08,231.158203125
0,1,0,23923,1.046875,0.177734375,3,1,2,15,5,613.211853027344,665.585388183594,0,1,objects,small,1,1,objects,P,big,VS,O,56,E08,231.158203125
0,1,1,23924,1.310546875,0.125,4,1,4,29,6,863.653930664062,281.397369384766,0,1,faces,male,1,1,objects,P,big,VS,O,56,E08,231.158203125
0,1,0,23926,1.65625,0.18359375,5,0,10,58,8,1160.98486328125,462.224273681641,0,1,faces,male,1,1,objects,P,big,VS,O,56,E08,231.158203125
0,1,0,23927,1.912109375,0.16796875,6,0,13,71,9,1243.23291015625,835.556701660156,0,1,faces,female,1,1,objects,P,big,VS,O,56,E08,231.158203125
0,1,1,23929,2.2421875,0.22265625,7,0,8,52,11,1064.9482421875,733.073059082031,0,1,objects,small,1,1,objects,P,big,VS,O,56,E08,231.158203125
0,1,0,23930,2.505859375,0.18359375,8,0,11,60,12,1167.88171386719,628.31103515625,0,1,objects,big,1,1,objects,P,big,VS,O,56,E08,231.158203125
2,1,0,23931,2.751953125,0.375,9,0,7,42,13,943.301330566406,634.808166503906,0,1,objects,small,1,1,objects,P,big,VS,O,56,E08,231.158203125
0,1,0,23932,3.212890625,0.134765625,10,0,12,64,14,1243.69836425781,166.864562988281,0,1,faces,female,1,1,objects,P,big,VS,O,56,E08,231.158203125
0,1,0,23933,3.482421875,0.158203125,11,0,5,38,15,948.73974609375,253.978149414062,0,1,faces,male,1,1,objects,P,big,VS,O,56,E08,231.158203125
0,0,0,23934,3.73828125,0.216796875,12,0,14,80,16,1360.34460449219,885.862243652344,1,0,NaN,NaN,1,1,objects,P,big,VS,O,56,E08,231.158203125
0,1,0,23944,0.73828125,0.169921875,1,1,5,26,4,711.479675292969,879.795288085938,0,1,objects,small,0,1,faces,A,female,EX,I,57,E08,235.357421875
0,1,0,23945,1.009765625,0.275390625,2,1,8,36,5,825.116394042969,950.686401367188,0,1,faces,male,0,1,faces,A,female,EX,I,57,E08,235.357421875
0,1,0,23948,1.6171875,0.109375,3,1,2,5,8,544.202575683594,492.620208740234,0,1,faces,female,0,1,faces,A,female,EX,I,57,E08,235.357421875
1,1,0,23950,2.021484375,0.220703125,4,1,1,2,10,519.860290527344,241.337066650391,0,1,objects,big,0,1,faces,A,female,EX,I,57,E08,235.357421875
0,1,0,23951,2.310546875,0.150390625,5,0,3,21,11,807.659729003906,381.864562988281,0,1,faces,female,0,1,faces,A,female,EX,I,57,E08,235.357421875
2,1,0,23952,2.533203125,0.2734375,6,0,1,2,12,525.058776855469,238.13671875,0,1,objects,big,0,1,faces,A,female,EX,I,57,E08,235.357421875
0,1,0,23954,3.041015625,0.357421875,7,0,11,65,14,1264.71496582031,254.441513061523,0,1,objects,big,0,1,faces,A,female,EX,I,57,E08,235.357421875
0,1,0,23955,3.439453125,0.501953125,8,0,14,73,15,1366.92712402344,144.284606933594,0,1,faces,male,0,1,faces,A,female,EX,I,57,E08,235.357421875
1,1,1,23971,0.490234375,0.17578125,1,1,10,58,3,1185.86975097656,410.591918945312,0,1,faces,female,0,1,faces,A,male,VS,F,58,E08,239.556640625
0,1,0,23973,0.826171875,0.130859375,2,1,14,74,5,1329.18994140625,274.494110107422,0,1,faces,female,0,1,faces,A,male,VS,F,58,E08,239.556640625
0,1,0,23974,0.982421875,0.1484375,3,1,12,65,6,1269.06213378906,252.703720092773,0,1,faces,male,0,1,faces,A,male,VS,F,58,E08,239.556640625
1,1,1,23975,1.2109375,0.18359375,4,1,1,1,7,580.019897460938,115.079879760742,0,1,faces,male,0,1,faces,A,male,VS,F,58,E08,239.556640625
0,1,1,23977,1.572265625,0.212890625,5,0,3,11,9,633.065551757812,211.745025634766,0,1,faces,male,0,1,faces,A,male,VS,F,58,E08,239.556640625
2,1,0,23979,1.923828125,0.259765625,6,0,1,1,11,554.238159179688,125.214195251465,0,1,faces,male,0,1,faces,A,male,VS,F,58,E08,239.556640625
0,1,1,23980,2.2734375,0.146484375,7,0,5,15,12,643.734069824219,609.154846191406,0,1,faces,male,0,1,faces,A,male,VS,F,58,E08,239.556640625
0,1,0,23982,2.6640625,0.126953125,8,0,8,52,14,1016.96295166016,743.0791015625,0,1,objects,small,0,1,faces,A,male,VS,F,58,E08,239.556640625
0,1,0,23983,2.814453125,0.1328125,9,0,7,43,15,943.242126464844,753.37060546875,0,1,faces,male,0,1,faces,A,male,VS,F,58,E08,239.556640625
0,1,1,23984,3.0078125,0.10546875,10,0,11,62,16,1178.72839355469,871.680969238281,0,1,faces,male,0,1,faces,A,male,VS,F,58,E08,239.556640625
2,1,1,23987,3.4296875,0.1015625,11,0,10,58,19,1208.46154785156,421.078063964844,0,1,faces,female,0,1,faces,A,male,VS,F,58,E08,239.556640625
0,1,1,23989,3.806640625,0.13671875,12,0,9,57,21,1192.97875976562,310.523498535156,0,1,objects,big,0,1,faces,A,male,VS,F,58,E08,239.556640625
0,1,0,24005,0.326171875,0.11328125,1,1,4,7,2,597.579040527344,703.366821289062,0,1,faces,male,0,1,objects,A,big,VS,O,59,E08,243.755859375
0,1,0,24006,0.51171875,0.150390625,2,1,6,14,3,658.863647460938,587.534606933594,0,1,faces,male,0,1,objects,A,big,VS,O,59,E08,243.755859375
1,1,0,24007,0.69921875,0.115234375,3,1,8,24,4,734.060607910156,642.757141113281,0,1,objects,big,0,1,objects,A,big,VS,O,59,E08,243.755859375
1,1,1,24008,0.888671875,0.208984375,4,1,2,2,5,559.166687011719,192.186920166016,0,1,objects,small,0,1,objects,A,big,VS,O,59,E08,243.755859375
0,1,0,24012,1.837890625,0.1328125,5,0,11,54,9,1030.14099121094,928.0693359375,0,1,objects,small,0,1,objects,A,big,VS,O,59,E08,243.755859375
0,1,0,24013,2.056640625,0.154296875,6,0,12,59,10,1198.46899414062,556.336059570312,0,1,faces,female,0,1,objects,A,big,VS,O,59,E08,243.755859375
0,1,0,24015,2.41796875,0.11328125,7,0,15,75,12,1360.77587890625,341.886657714844,0,1,faces,female,0,1,objects,A,big,VS,O,59,E08,243.755859375
0,1,0,24016,2.630859375,0.1484375,8,0,3,6,13,588.701354980469,627.116760253906,0,1,faces,male,0,1,objects,A,big,VS,O,59,E08,243.755859375
2,1,0,24017,2.828125,0.162109375,9,0,8,24,14,729.053955078125,653.3857421875,0,1,objects,big,0,1,objects,A,big,VS,O,59,E08,243.755859375
2,1,0,24021,3.533203125,0.3671875,10,0,2,2,18,524.735046386719,219.900512695312,0,1,objects,small,0,1,objects,A,big,VS,O,59,E08,243.755859375
0,1,0,24035,0.23046875,0.146484375,1,1,8,33,1,843.02099609375,666.127014160156,0,1,faces,female,0,0,faces,A,female,VS,I,60,E08,247.955078125
0,1,0,24039,1.1875,0.189453125,2,1,1,2,5,560.289855957031,227.485488891602,0,1,faces,male,0,0,faces,A,female,VS,I,60,E08,247.955078125
0,1,0,24042,1.8359375,0.21875,3,1,7,29,8,864.722351074219,238.187606811523,0,1,faces,male,0,0,faces,A,female,VS,I,60,E08,247.955078125
0,1,0,24043,2.130859375,0.162109375,4,1,4,10,9,622.386901855469,110.091796875,0,1,objects,small,0,0,faces,A,female,VS,I,60,E08,247.955078125
0,1,0,24044,2.375,0.18359375,5,0,11,46,10,1067.73413085938,134.406021118164,0,1,objects,big,0,0,faces,A,female,VS,I,60,E08,247.955078125
0,1,0,24045,2.619140625,0.13671875,6,0,9,38,11,953.189392089844,246.561859130859,0,1,objects,small,0,0,faces,A,female,VS,I,60,E08,247.955078125
0,1,0,24046,2.80859375,0.140625,7,0,10,39,12,947.088623046875,345.422332763672,0,1,faces,female,0,0,faces,A,female,VS,I,60,E08,247.955078125
1,1,0,24047,3,0.26171875,8,0,12,49,13,1041.55004882812,430.65625,0,1,faces,female,0,0,faces,A,female,VS,I,60,E08,247.955078125
2,1,0,24049,3.5078125,0.1953125,9,0,12,49,15,1050.458984375,465.877136230469,0,1,faces,female,0,0,faces,A,female,VS,I,60,E08,247.955078125
0,1,0,24050,3.775390625,0.16796875,10,0,13,53,16,1046.08654785156,834.839477539062,0,1,faces,female,0,0,faces,A,female,VS,I,60,E08,247.955078125
1,1,0,24061,0.392578125,0.16015625,1,1,5,25,2,776.761047363281,789.463439941406,0,1,faces,female,0,1,faces,A,female,VS,F,61,E08,252.154296875
0,1,1,24062,0.62890625,0.138671875,2,1,2,4,3,562.415893554688,436.642761230469,0,1,faces,male,0,1,faces,A,female,VS,F,61,E08,252.154296875
0,1,1,24065,1.19140625,0.212890625,3,1,12,73,6,1317.25756835938,189.872055053711,0,1,faces,female,0,1,faces,A,female,VS,F,61,E08,252.154296875
0,1,0,24067,1.69921875,0.234375,4,1,14,75,8,1370.76977539062,313.105590820312,0,1,objects,small,0,1,faces,A,female,VS,F,61,E08,252.154296875
0,1,0,24068,2.05859375,0.2109375,5,0,8,49,9,1050.96508789062,456.764465332031,0,1,faces,male,0,1,faces,A,female,VS,F,61,E08,252.154296875
2,1,1,24069,2.3515625,0.158203125,6,0,5,25,10,752.914428710938,787.58984375,0,1,faces,female,0,1,faces,A,female,VS,F,61,E08,252.154296875
0,1,0,24075,3.638671875,0.109375,7,0,15,81,16,1405.56127929688,960.682922363281,0,1,faces,female,0,1,faces,A,female,VS,F,61,E08,252.154296875
0,1,0,24084,0.2421875,0.107421875,1,1,15,74,1,1338.97277832031,277.673004150391,0,1,faces,male,0,0,faces,A,male,EX,I,62,E08,256.353515625
0,1,0,24085,0.4140625,0.115234375,2,1,11,56,2,1111.83227539062,214.251480102539,0,1,objects,big,0,0,faces,A,male,EX,I,62,E08,256.353515625
0,1,0,24086,0.58984375,0.17578125,3,1,9,37,3,959.712341308594,104.242317199707,0,1,faces,female,0,0,faces,A,male,EX,I,62,E08,256.353515625
1,1,0,24088,1.02734375,0.1875,4,1,6,29,5,856.10986328125,267.882965087891,0,1,faces,female,0,0,faces,A,male,EX,I,62,E08,256.353515625
0,1,0,24089,1.24609375,0.14453125,5,0,7,30,6,860.468383789062,312.340545654297,0,1,faces,male,0,0,faces,A,male,EX,I,62,E08,256.353515625
2,1,0,24090,1.439453125,0.50390625,6,0,6,29,7,852.869750976562,211.634674072266,0,1,faces,female,0,0,faces,A,male,EX,I,62,E08,256.353515625
0,1,0,24092,2.26171875,0.16796875,7,0,4,16,9,705.39990234375,741.642333984375,0,1,faces,female,0,0,faces,A,male,EX,I,62,E08,256.353515625
0,1,0,24093,2.4609375,0.228515625,8,0,5,25,10,731.426147460938,747.940368652344,0,1,faces,female,0,0,faces,A,male,EX,I,62,E08,256.353515625
0,1,0,24094,2.755859375,0.20703125,9,0,1,9,11,513.647827148438,986.720458984375,0,1,faces,male,0,0,faces,A,male,EX,I,62,E08,256.353515625
0,1,0,24095,3.048828125,0.146484375,10,0,8,35,12,866.408447265625,857.163391113281,0,1,objects,small,0,0,faces,A,male,EX,I,62,E08,256.353515625
0,1,0,24098,3.7421875,0.19921875,11,0,13,65,15,1260.56567382812,259.680267333984,0,1,objects,big,0,0,faces,A,male,EX,I,62,E08,256.353515625
0,1,0,24111,0.20703125,0.10546875,1,1,9,49,1,1102.56811523438,458.265838623047,0,1,faces,female,0,1,objects,A,big,EX,O,63,E08,260.552734375
0,1,0,24112,0.34765625,0.1484375,2,1,11,58,2,1192.69885253906,425.198760986328,0,1,faces,female,0,1,objects,A,big,EX,O,63,E08,260.552734375
0,1,0,24113,0.54296875,0.2578125,3,1,13,67,3,1280.25451660156,452.523620605469,0,1,objects,small,0,1,objects,A,big,EX,O,63,E08,260.552734375
1,1,1,24114,0.880859375,0.14453125,4,1,6,29,4,849.146545410156,250.697341918945,0,1,faces,female,0,1,objects,A,big,EX,O,63,E08,260.552734375
0,1,0,24116,1.244140625,0.322265625,5,0,4,20,6,750.508178710938,216.056823730469,0,1,objects,big,0,1,objects,A,big,EX,O,63,E08,260.552734375
2,1,0,24117,1.6015625,0.287109375,6,0,6,29,7,843.651733398438,217.962692260742,0,1,faces,female,0,1,objects,A,big,EX,O,63,E08,260.552734375
0,1,1,24118,1.951171875,0.125,7,0,8,47,8,1090.96350097656,223.067581176758,0,1,faces,male,0,1,objects,A,big,EX,O,63,E08,260.552734375
3,1,0,24120,2.3125,0.248046875,8,0,6,29,10,867.652587890625,209.728591918945,0,1,faces,female,0,1,objects,A,big,EX,O,63,E08,260.552734375
0,1,0,24121,2.630859375,0.361328125,9,0,2,13,11,635.555114746094,436.067321777344,0,1,faces,male,0,1,objects,A,big,EX,O,63,E08,260.552734375
0,1,1,24122,3.060546875,0.373046875,10,0,5,24,12,721.622436523438,652.395080566406,0,1,faces,female,0,1,objects,A,big,EX,O,63,E08,260.552734375
0,1,0,24144,1.154296875,0.158203125,1,1,5,28,4,856.291870117188,104.940010070801,0,1,objects,big,1,1,faces,P,male,VS,F,64,E08,264.751953125
1,1,0,24145,1.3671875,0.17578125,2,1,8,46,5,1076.05090332031,139.749725341797,1,0,NaN,NaN,1,1,faces,P,male,VS,F,64,E08,264.751953125
1,1,0,24146,1.59765625,0.150390625,3,1,13,64,6,1225.6298828125,137.804504394531,0,1,faces,female,1,1,faces,P,male,VS,F,64,E08,264.751953125
0,1,0,24147,1.810546875,0.248046875,4,1,9,47,7,1056.87438964844,214.423583984375,0,1,faces,male,1,1,faces,P,male,VS,F,64,E08,264.751953125
2,0,0,24148,2.099609375,0.734375,5,0,8,46,8,1064.1708984375,115.593376159668,1,0,NaN,NaN,1,1,faces,P,male,VS,F,64,E08,264.751953125
2,0,0,24149,2.88671875,0.16015625,6,0,13,64,9,1213.97607421875,122.788703918457,0,1,faces,female,1,1,faces,P,male,VS,F,64,E08,264.751953125
0,0,0,24150,3.072265625,0.25390625,7,0,11,55,10,1172.92224121094,115.70597076416,0,1,faces,female,1,1,faces,P,male,VS,F,64,E08,264.751953125
0,1,0,24163,0.75390625,0.138671875,1,1,6,27,4,709.813598632812,952.021362304688,0,1,objects,small,1,1,objects,P,small,VS,O,65,E08,268.951171875
1,1,0,24165,1.16015625,0.125,2,1,10,52,6,1053.24914550781,740.112915039062,0,1,objects,big,1,1,objects,P,small,VS,O,65,E08,268.951171875
1,0,0,24166,1.3828125,0.208984375,3,1,13,71,7,1282.13659667969,827.463623046875,1,0,NaN,NaN,1,1,objects,P,small,VS,O,65,E08,268.951171875
2,0,0,24167,1.62890625,0.130859375,4,1,10,52,8,1074.62133789062,750.828796386719,0,1,objects,big,1,1,objects,P,small,VS,O,65,E08,268.951171875
2,0,0,24168,1.83203125,0.26171875,5,0,13,71,9,1283.85864257812,871.652038574219,1,0,NaN,NaN,1,1,objects,P,small,VS,O,65,E08,268.951171875
0,1,0,24175,0.23046875,0.177734375,1,1,4,30,1,833.983337402344,390.234497070312,0,1,faces,male,0,1,objects,A,small,EX,O,66,E08,273.150390625
0,1,0,24176,0.48046875,0.25390625,2,1,3,15,2,610.081237792969,626.024230957031,0,1,objects,big,0,1,objects,A,small,EX,O,66,E08,273.150390625
0,1,0,24177,0.765625,0.21484375,3,1,1,5,3,509.796478271484,563.326477050781,0,1,faces,male,0,1,objects,A,small,EX,O,66,E08,273.150390625
0,1,1,24179,1.22265625,0.16796875,4,1,6,37,5,961.859985351562,97.9473190307617,0,1,objects,small,0,1,objects,A,small,EX,O,66,E08,273.150390625
0,1,0,24181,1.673828125,0.36328125,5,0,15,73,7,1363.74816894531,147.491088867188,0,1,faces,female,0,1,objects,A,small,EX,O,66,E08,273.150390625
0,1,0,24183,2.27734375,0.5078125,6,0,11,59,9,1160.00830078125,551.282043457031,0,1,objects,small,0,1,objects,A,small,EX,O,66,E08,273.150390625
0,1,0,24184,2.81640625,0.611328125,7,0,7,49,10,1049.92517089844,451.829315185547,0,1,faces,male,0,1,objects,A,small,EX,O,66,E08,273.150390625
0,1,0,24185,3.498046875,0.13671875,8,0,12,61,11,1117.00183105469,699.068054199219,0,1,faces,female,0,1,objects,A,small,EX,O,66,E08,273.150390625
0,1,0,24199,0.486328125,0.1796875,1,1,11,64,3,1281.03515625,137.276458740234,0,1,faces,female,0,1,faces,P,male,VS,F,67,E08,277.349609375
0,1,0,24202,1.1171875,0.12890625,2,1,14,69,6,1263.00146484375,658.101867675781,0,1,faces,male,0,1,faces,P,male,VS,F,67,E08,277.349609375
0,1,0,24204,1.431640625,0.1953125,3,1,8,52,8,1046.25598144531,755.432739257812,0,1,faces,male,0,1,faces,P,male,VS,F,67,E08,277.349609375
0,1,1,24208,1.9765625,0.142578125,4,1,9,54,12,1052.78540039062,927.837219238281,0,1,faces,male,0,1,faces,P,male,VS,F,67,E08,277.349609375
0,1,0,24209,2.20703125,0.13671875,5,0,4,25,13,713.534423828125,755.6962890625,0,1,faces,female,0,1,faces,P,male,VS,F,67,E08,277.349609375
0,1,0,24225,0.419921875,0.125,1,1,5,24,3,710.77294921875,620.879699707031,0,1,faces,male,1,1,faces,P,female,VS,I,68,E08,281.548828125
0,1,1,24227,0.6875,0.1171875,2,1,7,27,5,716.3828125,924.727172851562,0,1,objects,small,1,1,faces,P,female,VS,I,68,E08,281.548828125
0,1,0,24231,1.337890625,0.12890625,3,1,1,4,9,511.245330810547,437.789398193359,0,1,faces,female,1,1,faces,P,female,VS,I,68,E08,281.548828125
0,1,0,24234,1.896484375,0.126953125,4,1,8,29,12,826.819702148438,240.464553833008,0,1,faces,male,1,1,faces,P,female,VS,I,68,E08,281.548828125
1,0,1,24235,2.046875,0.466796875,5,0,3,20,13,751.294067382812,230.876449584961,1,0,NaN,NaN,1,1,faces,P,female,VS,I,68,E08,281.548828125
0,0,0,24237,3.4765625,0.15234375,6,0,12,46,15,1075.38403320312,116.447555541992,0,1,faces,female,1,1,faces,P,female,VS,I,68,E08,281.548828125
2,0,0,24238,3.6953125,0.173828125,7,0,3,20,16,806.054260253906,215.263259887695,1,0,NaN,NaN,1,1,faces,P,female,VS,I,68,E08,281.548828125
0,1,0,24245,0.25,0.107421875,1,1,10,33,1,840.423217773438,608.375915527344,0,1,objects,small,0,1,faces,A,male,VS,I,69,E08,285.748046875
0,1,0,24246,0.39453125,0.14453125,2,1,9,32,2,829.847839355469,553.287536621094,0,1,faces,female,0,1,faces,A,male,VS,I,69,E08,285.748046875
0,1,0,24248,0.7734375,0.140625,3,1,6,25,4,717.343566894531,752.743286132812,0,1,faces,male,0,1,faces,A,male,VS,I,69,E08,285.748046875
0,1,0,24249,0.94921875,0.173828125,4,1,7,26,5,720.103332519531,826.123168945312,0,1,faces,female,0,1,faces,A,male,VS,I,69,E08,285.748046875
0,1,0,24250,1.16796875,0.20703125,5,0,11,34,6,827.070556640625,728.737182617188,0,1,faces,female,0,1,faces,A,male,VS,I,69,E08,285.748046875
0,1,1,24251,1.45703125,0.138671875,6,0,1,1,7,595.340759277344,161.220687866211,0,1,faces,male,0,1,faces,A,male,VS,I,69,E08,285.748046875
0,1,0,24253,1.849609375,0.240234375,7,0,4,19,9,754.180114746094,117.638954162598,0,1,faces,male,0,1,faces,A,male,VS,I,69,E08,285.748046875
0,1,0,24254,2.150390625,0.17578125,8,0,3,11,10,645.351745605469,202.293518066406,0,1,faces,male,0,1,faces,A,male,VS,I,69,E08,285.748046875
0,1,0,24255,2.42578125,0.1328125,9,0,14,76,11,1344.45971679688,479.559509277344,0,1,objects,small,0,1,faces,A,male,VS,I,69,E08,285.748046875
0,1,1,24256,2.607421875,0.396484375,10,0,15,77,12,1381.21130371094,541.327209472656,0,1,faces,female,0,1,faces,A,male,VS,I,69,E08,285.748046875
0,1,0,24259,3.609375,0.26171875,11,0,5,21,15,722.376342773438,319.374084472656,0,1,faces,female,0,1,faces,A,male,VS,I,69,E08,285.748046875
0,1,1,24268,0.412109375,0.16796875,1,1,9,49,3,1044.02368164062,443.616882324219,1,0,NaN,NaN,1,1,faces,P,male,VS,I,70,E08,289.947265625
0,1,0,24280,0.3671875,0.18359375,1,1,9,50,2,1060.49450683594,538.955444335938,0,1,faces,female,0,1,faces,A,male,EX,F,71,E08,294.146484375
0,1,1,24281,0.623046875,0.259765625,2,1,4,21,3,724.069030761719,306.966857910156,0,1,faces,male,0,1,faces,A,male,EX,F,71,E08,294.146484375
0,1,0,24283,1.607421875,0.533203125,3,1,2,12,5,628.180053710938,335.363067626953,0,1,faces,female,0,1,faces,A,male,EX,F,71,E08,294.146484375
0,1,0,24285,2.3828125,0.197265625,4,1,8,33,7,822.603820800781,648.036376953125,0,1,objects,small,0,1,faces,A,male,EX,F,71,E08,294.146484375
0,1,0,24305,0.193359375,0.193359375,1,1,10,58,2,1147.47875976562,429.094116210938,0,1,objects,small,1,1,faces,P,male,VS,I,72,E08,298.345703125
0,1,0,24307,0.58203125,0.140625,2,1,12,64,4,1260.44250488281,166.995071411133,0,1,faces,female,1,1,faces,P,male,VS,I,72,E08,298.345703125
1,1,0,24308,0.8125,0.205078125,3,1,2,14,5,667.060729980469,518.144470214844,0,1,objects,small,1,1,faces,P,male,VS,I,72,E08,298.345703125
0,1,0,24309,1.0625,0.19140625,4,1,4,23,6,719.491149902344,560.743835449219,1,0,NaN,NaN,1,1,faces,P,male,VS,I,72,E08,298.345703125
2,1,0,24310,2.294921875,0.806640625,5,0,2,14,7,706.099853515625,558.193969726562,0,1,objects,small,1,1,faces,P,male,VS,I,72,E08,298.345703125
0,1,0,24456,0.224609375,0.125,1,1,10,49,1,1011.68975830078,466.819519042969,0,1,objects,big,1,1,objects,P,small,VS,O,73,E08,302.544921875
0,1,0,24461,1.33984375,0.13671875,2,1,15,79,6,1342.07641601562,725.243835449219,0,1,faces,male,1,1,objects,P,small,VS,O,73,E08,302.544921875
0,1,0,24462,1.5234375,0.166015625,3,1,14,70,7,1271.60473632812,732.10791015625,0,1,objects,big,1,1,objects,P,small,VS,O,73,E08,302.544921875
0,1,0,24464,1.908203125,0.140625,4,1,8,40,9,980.330749511719,479.688415527344,0,1,faces,male,1,1,objects,P,small,VS,O,73,E08,302.544921875
0,1,0,24465,2.103515625,0.177734375,5,0,6,32,10,871.215087890625,531.299987792969,0,1,faces,female,1,1,objects,P,small,VS,O,73,E08,302.544921875
0,1,1,24466,2.34375,0.1640625,6,0,12,57,11,1114.90637207031,349.634826660156,1,0,NaN,NaN,1,1,objects,P,small,VS,O,73,E08,302.544921875
1,1,0,24482,0.400390625,0.177734375,1,1,9,35,2,830.080810546875,808.795654296875,0,1,faces,female,0,1,objects,A,small,VS,O,74,E08,306.744140625
0,1,0,24486,1.171875,0.21484375,2,1,3,11,6,656.416381835938,201.484085083008,0,1,objects,small,0,1,objects,A,small,VS,O,74,E08,306.744140625
0,1,0,24487,1.4609375,0.189453125,3,1,6,31,7,823.751098632812,465.550140380859,0,1,faces,male,0,1,objects,A,small,VS,O,74,E08,306.744140625
0,1,0,24488,1.720703125,0.181640625,4,1,8,34,8,869.345764160156,700.019348144531,0,1,faces,female,0,1,objects,A,small,VS,O,74,E08,306.744140625
0,1,0,24489,1.943359375,0.1171875,5,0,7,33,9,843.185607910156,638.418762207031,0,1,objects,big,0,1,objects,A,small,VS,O,74,E08,306.744140625
0,1,0,24490,2.13671875,0.177734375,6,0,14,71,10,1307.26440429688,812.682861328125,0,1,objects,big,0,1,objects,A,small,VS,O,74,E08,306.744140625
0,1,0,24491,2.353515625,0.12890625,7,0,15,79,11,1326.27087402344,713.441711425781,0,1,faces,female,0,1,objects,A,small,VS,O,74,E08,306.744140625
0,1,0,24492,2.5390625,0.107421875,8,0,13,69,12,1264.84924316406,628.464904785156,0,1,faces,female,0,1,objects,A,small,VS,O,74,E08,306.744140625
2,1,0,24493,2.720703125,0.16015625,9,0,9,35,13,902.60107421875,872.336120605469,0,1,faces,female,0,1,objects,A,small,VS,O,74,E08,306.744140625
0,1,1,24495,3.236328125,0.12890625,10,0,4,28,15,837.486755371094,165.914627075195,0,1,objects,small,0,1,objects,A,small,VS,O,74,E08,306.744140625
0,1,0,24498,3.818359375,0.1171875,11,0,12,59,18,1136.76440429688,498.299438476562,0,1,faces,female,0,1,objects,A,small,VS,O,74,E08,306.744140625
0,1,0,24507,0.59375,0.142578125,1,1,8,37,3,921.758361816406,106.459449768066,0,1,objects,small,0,1,objects,A,big,VS,O,75,E08,310.943359375
0,1,0,24509,0.943359375,0.158203125,2,1,2,5,5,516.017578125,557.081115722656,0,1,objects,big,0,1,objects,A,big,VS,O,75,E08,310.943359375
0,1,0,24511,1.310546875,0.142578125,3,1,7,34,7,852.718688964844,724.391845703125,0,1,faces,male,0,1,objects,A,big,VS,O,75,E08,310.943359375
0,1,0,24513,1.6875,0.126953125,4,1,10,53,9,1084.31799316406,869.452758789062,0,1,faces,female,0,1,objects,A,big,VS,O,75,E08,310.943359375
0,1,0,24514,1.876953125,0.126953125,5,0,15,81,10,1393.17785644531,965.330627441406,0,1,faces,female,0,1,objects,A,big,VS,O,75,E08,310.943359375
0,1,0,24515,2.07421875,0.134765625,6,0,14,78,11,1349.1591796875,625.672485351562,0,1,faces,female,0,1,objects,A,big,VS,O,75,E08,310.943359375
1,1,0,24516,2.28125,0.17578125,7,0,12,67,12,1297.48669433594,446.655395507812,0,1,objects,big,0,1,objects,A,big,VS,O,75,E08,310.943359375
0,1,0,24517,2.533203125,0.15234375,8,0,13,73,13,1400.31042480469,144.302032470703,0,1,faces,female,0,1,objects,A,big,VS,O,75,E08,310.943359375
0,1,0,24518,2.74609375,0.19140625,9,0,11,55,14,1195.8037109375,121.795806884766,0,1,objects,big,0,1,objects,A,big,VS,O,75,E08,310.943359375
0,1,0,24519,3.009765625,0.14453125,10,0,5,28,15,900.062683105469,135.804077148438,0,1,faces,male,0,1,objects,A,big,VS,O,75,E08,310.943359375
0,1,0,24520,3.21484375,0.21484375,11,0,6,30,16,852.321228027344,319.465515136719,0,1,faces,female,0,1,objects,A,big,VS,O,75,E08,310.943359375
2,1,0,24521,3.51953125,0.166015625,12,0,12,67,17,1295.1181640625,440.821685791016,0,1,objects,big,0,1,objects,A,big,VS,O,75,E08,310.943359375
0,1,0,24522,3.765625,0.16015625,13,0,4,25,18,805.609680175781,771.822570800781,0,1,faces,male,0,1,objects,A,big,VS,O,75,E08,310.943359375
0,1,0,24533,0.18359375,0.14453125,1,1,10,42,1,953.21337890625,602.662292480469,0,1,objects,big,1,1,faces,P,female,VS,F,76,E08,315.142578125
1,1,0,24535,0.63671875,0.1875,2,1,8,33,3,877.336975097656,669.379943847656,0,1,faces,female,1,1,faces,P,female,VS,F,76,E08,315.142578125
0,1,1,24536,0.88671875,0.142578125,3,1,7,27,4,791.846496582031,939.318176269531,0,1,faces,female,1,1,faces,P,female,VS,F,76,E08,315.142578125
2,1,1,24538,1.19140625,0.107421875,4,1,8,33,6,819.592895507812,682.518249511719,0,1,faces,female,1,1,faces,P,female,VS,F,76,E08,315.142578125
0,1,1,24540,1.57421875,0.208984375,5,0,13,73,8,1399.49279785156,169.831298828125,0,1,faces,male,1,1,faces,P,female,VS,F,76,E08,315.142578125
0,1,0,24544,2.45703125,0.1640625,6,0,2,5,12,557.585144042969,534.634460449219,0,1,faces,male,1,1,faces,P,female,VS,F,76,E08,315.142578125
0,1,0,24545,2.677734375,0.203125,7,0,6,23,13,750.933227539062,544.765014648438,0,1,faces,male,1,1,faces,P,female,VS,F,76,E08,315.142578125
3,1,0,24546,2.94140625,0.16015625,8,0,8,33,14,888.986450195312,655.383117675781,0,1,faces,female,1,1,faces,P,female,VS,F,76,E08,315.142578125
1,0,0,24547,3.154296875,0.234375,9,0,9,34,15,856.683227539062,737.215637207031,1,0,NaN,NaN,1,1,faces,P,female,VS,F,76,E08,315.142578125
2,0,0,24549,3.677734375,0.134765625,10,0,9,34,17,822.623229980469,747.683410644531,1,0,NaN,NaN,1,1,faces,P,female,VS,F,76,E08,315.142578125
0,1,0,24558,0.44921875,0.13671875,1,1,4,17,3,625.671569824219,837.147766113281,0,1,faces,male,0,1,faces,A,female,VS,I,77,E08,319.341796875
0,1,0,24559,0.65234375,0.197265625,2,1,2,6,4,538.146789550781,642.520324707031,0,1,faces,female,0,1,faces,A,female,VS,I,77,E08,319.341796875
0,1,0,24560,0.890625,0.109375,3,1,1,5,5,533.236511230469,513.01904296875,0,1,objects,big,0,1,faces,A,female,VS,I,77,E08,319.341796875
0,1,0,24561,1.0390625,0.259765625,4,1,3,13,6,643.200439453125,425.70166015625,0,1,faces,male,0,1,faces,A,female,VS,I,77,E08,319.341796875
0,1,1,24563,1.533203125,0.24609375,5,0,6,33,8,853.103332519531,668.278564453125,0,1,faces,male,0,1,faces,A,female,VS,I,77,E08,319.341796875
0,1,0,24565,2.041015625,0.3359375,6,0,5,31,10,865.445373535156,437.188995361328,0,1,faces,female,0,1,faces,A,female,VS,I,77,E08,319.341796875
0,1,1,24566,2.466796875,0.111328125,7,0,14,76,11,1323.42822265625,454.897369384766,0,1,faces,female,0,1,faces,A,female,VS,I,77,E08,319.341796875
0,1,0,24569,2.9921875,0.1484375,8,0,13,72,14,1293.33410644531,971.409240722656,0,1,objects,big,0,1,faces,A,female,VS,I,77,E08,319.341796875
0,1,0,24570,3.193359375,0.115234375,9,0,15,81,15,1401.72692871094,961.196716308594,0,1,faces,female,0,1,faces,A,female,VS,I,77,E08,319.341796875
0,1,0,24571,3.376953125,0.21484375,10,0,8,45,16,991.356262207031,955.037353515625,0,1,faces,male,0,1,faces,A,female,VS,I,77,E08,319.341796875
0,1,0,24572,3.701171875,0.171875,11,0,10,63,17,1209.51867675781,975.827880859375,0,1,faces,female,0,1,faces,A,female,VS,I,77,E08,319.341796875
0,1,0,24579,0.2421875,0.16015625,1,1,5,22,1,748.690856933594,441.254333496094,0,1,objects,big,0,1,faces,A,female,EX,F,78,E08,323.541015625
0,1,1,24580,0.478515625,0.19921875,2,1,3,10,2,643.584350585938,100.944961547852,0,1,faces,female,0,1,faces,A,female,EX,F,78,E08,323.541015625
0,1,0,24582,1.01171875,0.193359375,3,1,7,38,4,981.076171875,245.852172851562,0,1,objects,big,0,1,faces,A,female,EX,F,78,E08,323.541015625
0,1,0,24583,1.25390625,0.3359375,4,1,8,48,5,1069.82263183594,340.900421142578,0,1,faces,male,0,1,faces,A,female,EX,F,78,E08,323.541015625
1,1,1,24584,1.634765625,0.1015625,5,0,9,49,6,1070.72387695312,488.077972412109,0,1,faces,male,0,1,faces,A,female,EX,F,78,E08,323.541015625
0,1,0,24586,2.01953125,0.81640625,6,0,12,58,8,1179.72204589844,454.588806152344,0,1,faces,female,0,1,faces,A,female,EX,F,78,E08,323.541015625
2,1,0,24587,2.892578125,0.2890625,7,0,9,49,9,1064.1484375,462.273590087891,0,1,faces,male,0,1,faces,A,female,EX,F,78,E08,323.541015625
0,1,1,24588,3.248046875,0.234375,8,0,6,33,10,863.562744140625,639.326293945312,0,1,objects,small,0,1,faces,A,female,EX,F,78,E08,323.541015625
0,1,0,24591,3.798828125,0.2890625,9,0,4,17,13,621.104187011719,890.400451660156,0,1,faces,female,0,1,faces,A,female,EX,F,78,E08,323.541015625
0,1,0,24603,0.21484375,0.138671875,1,1,11,58,1,1151.46105957031,454.5712890625,0,1,faces,male,1,1,objects,P,small,VS,O,79,E08,327.740234375
0,1,0,24606,0.78125,0.14453125,2,1,5,25,4,738.549255371094,762.174438476562,1,0,NaN,NaN,1,1,objects,P,small,VS,O,79,E08,327.740234375
0,1,0,24620,0.728515625,0.158203125,1,1,8,37,4,977.251525878906,146.701858520508,0,1,objects,small,1,1,objects,P,big,VS,O,80,E08,331.939453125
0,0,0,24622,1.08203125,0.716796875,2,1,6,21,6,755.621948242188,333.715362548828,1,0,NaN,NaN,1,1,objects,P,big,VS,O,80,E08,331.939453125
1,1,1,24633,0.431640625,0.23046875,1,1,3,16,3,640.760314941406,748.257995605469,0,1,objects,small,0,1,faces,A,female,EX,I,81,E08,336.138671875
0,1,0,24636,1.048828125,0.205078125,2,1,1,12,6,652.021301269531,330.820251464844,0,1,faces,female,0,1,faces,A,female,EX,I,81,E08,336.138671875
0,1,0,24637,1.287109375,0.2421875,3,1,5,20,7,754.653015136719,231.040802001953,0,1,faces,female,0,1,faces,A,female,EX,I,81,E08,336.138671875
0,1,1,24638,1.60546875,0.150390625,4,1,11,56,8,1202.60266113281,262.16064453125,0,1,objects,big,0,1,faces,A,female,EX,I,81,E08,336.138671875
0,1,1,24640,1.935546875,0.201171875,5,0,14,74,10,1358.20324707031,249.419616699219,0,1,faces,male,0,1,faces,A,female,EX,I,81,E08,336.138671875
0,1,0,24642,2.423828125,0.24609375,6,0,6,30,12,852.124084472656,330.194000244141,0,1,objects,small,0,1,faces,A,female,EX,I,81,E08,336.138671875
2,1,1,24643,2.755859375,0.138671875,7,0,3,16,13,663.731384277344,757.107238769531,0,1,objects,small,0,1,faces,A,female,EX,I,81,E08,336.138671875
0,1,0,24648,3.88671875,0.203125,8,0,10,53,18,1075.25109863281,840.147033691406,0,1,objects,big,0,1,faces,A,female,EX,I,81,E08,336.138671875
0,1,0,24655,0.3203125,0.15625,1,1,4,23,2,754.848571777344,534.258422851562,0,1,faces,male,1,1,faces,P,female,VS,F,82,E08,340.337890625
0,1,0,24657,0.677734375,0.134765625,2,1,7,46,4,1074.55737304688,158.977294921875,0,1,objects,small,1,1,faces,P,female,VS,F,82,E08,340.337890625
0,1,0,24658,0.880859375,0.16796875,3,1,12,57,5,1164.39819335938,368.037292480469,0,1,faces,male,1,1,faces,P,female,VS,F,82,E08,340.337890625
0,1,1,24660,1.23828125,0.15234375,4,1,3,20,7,763.587768554688,205.583740234375,0,1,faces,male,1,1,faces,P,female,VS,F,82,E08,340.337890625
0,1,0,24662,1.69921875,0.265625,5,0,8,48,9,1072.27600097656,325.649963378906,0,1,faces,female,1,1,faces,P,female,VS,F,82,E08,340.337890625
0,1,0,24663,2.064453125,0.138671875,6,0,2,9,10,542.561584472656,913.996398925781,0,1,objects,big,1,1,faces,P,female,VS,F,82,E08,340.337890625
0,1,0,24664,2.240234375,0.17578125,7,0,1,8,11,521.913391113281,844.261657714844,0,1,faces,female,1,1,faces,P,female,VS,F,82,E08,340.337890625
0,1,1,24666,2.65625,0.15234375,8,0,11,54,13,1036.45275878906,919.987609863281,0,1,faces,female,1,1,faces,P,female,VS,F,82,E08,340.337890625
0,1,1,24668,2.994140625,0.123046875,9,0,14,61,15,1170.10314941406,730.445190429688,1,0,NaN,NaN,1,1,faces,P,female,VS,F,82,E08,340.337890625
0,1,0,24679,0.369140625,0.15234375,1,1,7,28,2,826.521301269531,111.926780700684,0,1,faces,female,0,1,faces,A,male,VS,I,83,E08,344.537109375
0,1,0,24680,0.576171875,0.19921875,2,1,5,19,3,729.497314453125,103.370651245117,0,1,faces,female,0,1,faces,A,male,VS,I,83,E08,344.537109375
0,1,0,24681,0.828125,0.15234375,3,1,1,10,4,635.748168945312,130.081268310547,0,1,faces,male,0,1,faces,A,male,VS,I,83,E08,344.537109375
0,1,0,24682,1.03125,0.111328125,4,1,2,11,5,634.513488769531,218.811187744141,0,1,objects,small,0,1,faces,A,male,VS,I,83,E08,344.537109375
0,1,0,24683,1.20703125,0.150390625,5,0,3,13,6,652.97119140625,479.853088378906,0,1,faces,female,0,1,faces,A,male,VS,I,83,E08,344.537109375
0,1,0,24684,1.421875,0.109375,6,0,6,24,7,745.42041015625,639.265502929688,0,1,faces,female,0,1,faces,A,male,VS,I,83,E08,344.537109375
0,1,0,24687,1.919921875,0.115234375,7,0,4,18,10,642.619323730469,980.308654785156,0,1,faces,female,0,1,faces,A,male,VS,I,83,E08,344.537109375
0,1,1,24688,2.111328125,0.181640625,8,0,12,54,11,1039.138671875,906.168762207031,0,1,faces,male,0,1,faces,A,male,VS,I,83,E08,344.537109375
0,1,0,24690,2.466796875,0.20703125,9,0,10,52,13,1071.99096679688,775.496154785156,0,1,faces,male,0,1,faces,A,male,VS,I,83,E08,344.537109375
0,1,1,24691,2.7578125,0.134765625,10,0,15,75,14,1378.47729492188,331.354248046875,0,1,faces,male,0,1,faces,A,male,VS,I,83,E08,344.537109375
0,1,0,24693,3.1484375,0.287109375,11,0,14,74,16,1379.72009277344,282.928253173828,0,1,faces,male,0,1,faces,A,male,VS,I,83,E08,344.537109375
0,1,0,24694,3.51953125,0.296875,12,0,13,71,17,1270.96447753906,829.937255859375,0,1,objects,big,0,1,faces,A,male,VS,I,83,E08,344.537109375
0,1,0,24703,0.275390625,0.166015625,1,1,2,22,1,742.066101074219,451.930603027344,0,1,objects,big,0,1,objects,A,small,EX,O,84,E08,348.736328125
0,1,1,24704,0.51171875,0.138671875,2,1,1,7,2,545.090270996094,758.642150878906,0,1,faces,female,0,1,objects,A,small,EX,O,84,E08,348.736328125
0,1,0,24706,0.9296875,0.14453125,3,1,5,36,4,901.018371582031,944.110961914062,0,1,faces,female,0,1,objects,A,small,EX,O,84,E08,348.736328125
0,1,0,24707,1.10546875,0.2265625,4,1,7,45,5,959.046020507812,945.934020996094,0,1,faces,male,0,1,objects,A,small,EX,O,84,E08,348.736328125
0,1,0,24709,1.54296875,0.208984375,5,0,13,72,7,1307.27856445312,944.482666015625,0,1,faces,female,0,1,objects,A,small,EX,O,84,E08,348.736328125
0,1,0,24711,1.982421875,0.482421875,6,0,14,74,9,1393.83801269531,254.87255859375,0,1,faces,male,0,1,objects,A,small,EX,O,84,E08,348.736328125
0,1,0,24712,2.53515625,0.15625,7,0,11,58,10,1195.90734863281,406.376037597656,0,1,faces,male,0,1,objects,A,small,EX,O,84,E08,348.736328125
0,1,0,24713,2.728515625,0.357421875,8,0,10,57,11,1173.41149902344,333.804992675781,0,1,faces,male,0,1,objects,A,small,EX,O,84,E08,348.736328125
0,1,1,24714,3.1640625,0.158203125,9,0,6,42,12,942.654235839844,649.074829101562,0,1,faces,female,0,1,objects,A,small,EX,O,84,E08,348.736328125
0,1,0,24727,0.57421875,0.166015625,1,1,6,27,3,764.14794921875,940.144287109375,0,1,faces,male,1,0,faces,P,female,VS,I,85,E08,352.935546875
0,1,0,24729,0.88671875,0.16796875,2,1,3,18,5,707.893188476562,974.695373535156,0,1,objects,big,1,0,faces,P,female,VS,I,85,E08,352.935546875
0,1,1,24730,1.125,0.125,3,1,11,43,6,913.663513183594,731.980346679688,0,1,faces,female,1,0,faces,P,female,VS,I,85,E08,352.935546875
0,1,0,24732,1.478515625,0.263671875,4,1,15,81,8,1398.56433105469,943.931274414062,0,1,faces,female,1,0,faces,P,female,VS,I,85,E08,352.935546875
0,1,0,24735,2.15625,0.123046875,5,0,12,51,11,1048.48010253906,629.492614746094,0,1,faces,female,1,0,faces,P,female,VS,I,85,E08,352.935546875
0,1,0,24736,2.341796875,0.341796875,6,0,13,67,12,1283.25219726562,446.947113037109,0,1,faces,male,1,0,faces,P,female,VS,I,85,E08,352.935546875
0,1,1,24737,2.755859375,0.146484375,7,0,8,29,13,819.717956542969,237.862213134766,0,1,faces,male,1,0,faces,P,female,VS,I,85,E08,352.935546875
0,1,0,24739,3.08203125,0.24609375,8,0,7,28,15,857.466369628906,127.590934753418,0,1,faces,female,1,0,faces,P,female,VS,I,85,E08,352.935546875
0,1,0,24740,3.400390625,0.251953125,9,0,1,2,16,539.779724121094,253.775207519531,0,1,faces,female,1,0,faces,P,female,VS,I,85,E08,352.935546875
0,0,0,24741,3.708984375,0.208984375,10,0,2,12,17,643.647766113281,335.2021484375,1,0,NaN,NaN,1,0,faces,P,female,VS,I,85,E08,352.935546875
0,0,0,24742,3.98046875,0.130859375,11,0,5,23,18,757.976928710938,551.199645996094,0,1,faces,male,1,0,faces,P,female,VS,I,85,E08,352.935546875
0,1,0,24755,0.69140625,0.181640625,1,1,6,36,4,837.710754394531,959.722290039062,0,1,faces,female,1,1,faces,P,female,VS,I,86,E08,357.134765625
0,1,0,24757,1.091796875,0.138671875,2,1,9,53,6,1031.35400390625,856.970397949219,0,1,faces,male,1,1,faces,P,female,VS,I,86,E08,357.134765625
0,1,0,24758,1.34765625,0.21875,3,1,5,26,7,736.488159179688,867.633117675781,0,1,faces,male,1,1,faces,P,female,VS,I,86,E08,357.134765625
0,1,0,24759,1.658203125,0.146484375,4,1,15,79,8,1359.1728515625,759.397033691406,0,1,objects,small,1,1,faces,P,female,VS,I,86,E08,357.134765625
0,0,1,24760,1.87109375,0.294921875,5,0,14,78,9,1369.55334472656,653.701232910156,1,0,NaN,NaN,1,1,faces,P,female,VS,I,86,E08,357.134765625
0,1,0,24767,0.345703125,0.162109375,1,1,10,49,2,1058.42272949219,442.475952148438,0,1,faces,male,0,1,faces,A,male,EX,F,87,E08,361.333984375
0,1,0,24769,0.697265625,0.11328125,2,1,9,47,4,1063.17614746094,247.034088134766,0,1,faces,male,0,1,faces,A,male,EX,F,87,E08,361.333984375
0,1,0,24770,0.884765625,0.16796875,3,1,2,10,5,628.888305664062,130.928695678711,0,1,faces,female,0,1,faces,A,male,EX,F,87,E08,361.333984375
0,1,0,24771,1.099609375,0.19140625,4,1,1,1,6,585.132629394531,131.964767456055,0,1,faces,male,0,1,faces,A,male,EX,F,87,E08,361.333984375
0,1,1,24772,1.33984375,0.130859375,5,0,3,11,7,663.819396972656,257.704315185547,0,1,faces,female,0,1,faces,A,male,EX,F,87,E08,361.333984375
0,1,0,24775,2.0390625,0.205078125,6,0,8,39,10,967.447021484375,345.988098144531,0,1,faces,female,0,1,faces,A,male,EX,F,87,E08,361.333984375
0,1,1,24776,2.3203125,0.107421875,7,0,6,16,11,676.852966308594,731.400207519531,0,1,objects,big,0,1,faces,A,male,EX,F,87,E08,361.333984375
0,1,0,24778,2.68359375,0.216796875,8,0,11,53,13,1085.27124023438,818.168701171875,0,1,objects,big,0,1,faces,A,male,EX,F,87,E08,361.333984375
0,1,0,24779,2.94921875,0.138671875,9,0,13,62,14,1185.66284179688,836.209411621094,0,1,faces,male,0,1,faces,A,male,EX,F,87,E08,361.333984375
0,1,0,24780,3.115234375,0.37890625,10,0,12,54,15,1092.26257324219,925.486389160156,0,1,faces,female,0,1,faces,A,male,EX,F,87,E08,361.333984375
0,1,1,24795,0.595703125,0.15625,1,1,2,17,3,653.132629394531,862.004272460938,0,1,faces,male,0,0,objects,A,big,EX,O,88,E08,365.533203125
0,1,1,24797,0.98828125,0.125,2,1,6,38,5,928.202087402344,258.138580322266,0,1,faces,male,0,0,objects,A,big,EX,O,88,E08,365.533203125
0,1,0,24799,1.447265625,0.337890625,3,1,13,73,7,1379.70153808594,153.9423828125,0,1,objects,big,0,0,objects,A,big,EX,O,88,E08,365.533203125
0,1,0,24801,2.048828125,0.16015625,4,1,14,77,9,1391.86462402344,561.308837890625,0,1,objects,small,0,0,objects,A,big,EX,O,88,E08,365.533203125
1,1,1,24805,2.705078125,0.1328125,5,0,10,62,13,1190.97668457031,836.509887695312,0,1,faces,female,0,0,objects,A,big,EX,O,88,E08,365.533203125
2,1,1,24808,3.13671875,0.12109375,6,0,10,62,16,1208.80212402344,815.40185546875,0,1,faces,female,0,0,objects,A,big,EX,O,88,E08,365.533203125
3,1,1,24810,3.34375,0.111328125,7,0,10,62,18,1207.435546875,822.579833984375,0,1,faces,female,0,0,objects,A,big,EX,O,88,E08,365.533203125
0,1,0,24829,0.982421875,0.17578125,1,1,11,55,6,1138.01513671875,180.119110107422,0,1,faces,female,1,1,objects,P,big,VS,O,89,E08,369.732421875
0,1,0,24830,1.3203125,0.14453125,2,1,14,77,7,1397.58776855469,561.400634765625,0,1,faces,female,1,1,objects,P,big,VS,O,89,E08,369.732421875
0,1,0,24831,1.525390625,0.279296875,3,1,13,67,8,1274.23669433594,470.961639404297,0,1,objects,small,1,1,objects,P,big,VS,O,89,E08,369.732421875
0,1,0,24832,1.869140625,0.220703125,4,1,15,78,9,1396.95080566406,659.982971191406,0,1,objects,small,1,1,objects,P,big,VS,O,89,E08,369.732421875
