refix,pretarget,multifix,urevent,tonset,dur_added,rank,first_rank,stposrel,stposabs,n,x,y,istarget,isdistractor,distractor_cat,ditractor_atr,trial_targetseen,trial_correct,trial_cat,trial_resp,trial_atr,trial_type,trial_cattype,trial_number,trial_subject,trial_bgn_latency
1,1,0,24119,0.35546875,0.16796875,1,1,5,14,1,663.840515136719,503.790100097656,0,1,faces,female,0,0,faces,A,female,VS,I,1,E09,0.201171875
0,1,0,24120,0.541015625,0.12109375,2,1,4,13,2,649.903259277344,468.792694091797,0,1,objects,big,0,0,faces,A,female,VS,I,1,E09,0.201171875
1,1,0,24121,0.705078125,0.107421875,3,1,6,15,3,701.327331542969,621.147705078125,0,1,faces,male,0,0,faces,A,female,VS,I,1,E09,0.201171875
2,1,0,24122,0.8359375,0.34375,4,1,5,14,4,658.849060058594,582.709716796875,0,1,faces,female,0,0,faces,A,female,VS,I,1,E09,0.201171875
0,1,0,24124,1.392578125,0.140625,5,0,9,33,6,881.080688476562,675.228332519531,0,1,faces,female,0,0,faces,A,female,VS,I,1,E09,0.201171875
2,1,0,24125,1.578125,0.150390625,6,0,6,15,7,666.959655761719,661.666625976562,0,1,faces,male,0,0,faces,A,female,VS,I,1,E09,0.201171875
3,1,1,24126,1.75390625,0.265625,7,0,5,14,8,667.403503417969,570.483032226562,0,1,faces,female,0,0,faces,A,female,VS,I,1,E09,0.201171875
3,1,1,24128,2.78515625,0.37109375,8,0,6,15,10,657.765930175781,680.9306640625,0,1,faces,male,0,0,faces,A,female,VS,I,1,E09,0.201171875
0,1,0,24130,3.36328125,0.314453125,9,0,3,6,12,550.145263671875,657.333923339844,0,1,faces,male,0,0,faces,A,female,VS,I,1,E09,0.201171875
4,1,1,24131,3.712890625,0.1484375,10,0,5,14,13,652.250366210938,585.97314453125,0,1,faces,female,0,0,faces,A,female,VS,I,1,E09,0.201171875
0,1,0,24147,0.294921875,0.19140625,1,1,5,41,2,990.158264160156,578.827453613281,0,1,faces,male,0,1,objects,P,big,VS,O,2,E09,4.400390625
0,1,0,24150,2.396484375,0.220703125,2,1,8,47,5,1069.03051757812,276.288940429688,0,1,faces,male,0,1,objects,P,big,VS,O,2,E09,4.400390625
1,1,1,24152,2.8515625,0.236328125,3,1,15,80,7,1370.99475097656,858.518127441406,0,1,objects,big,0,1,objects,P,big,VS,O,2,E09,4.400390625
2,1,0,24155,3.861328125,0.41015625,4,1,15,80,10,1360.4248046875,844.830627441406,0,1,objects,big,0,1,objects,P,big,VS,O,2,E09,4.400390625
1,1,0,24172,0.46484375,0.1796875,1,1,2,5,2,562.888671875,517.325927734375,0,1,objects,small,0,0,faces,A,female,EX,F,3,E09,8.599609375
0,1,0,24173,0.66796875,0.150390625,2,1,1,4,3,560.391174316406,473.939514160156,0,1,objects,small,0,0,faces,A,female,EX,F,3,E09,8.599609375
0,1,0,24175,1.078125,0.21484375,3,1,5,21,5,772.692565917969,369.168975830078,0,1,faces,male,0,0,faces,A,female,EX,F,3,E09,8.599609375
0,1,0,24177,1.587890625,0.16015625,4,1,10,56,7,1157.24890136719,253.633071899414,0,1,faces,male,0,0,faces,A,female,EX,F,3,E09,8.599609375
0,1,0,24179,2.021484375,0.3125,5,0,8,34,9,859.416381835938,763.793334960938,0,1,faces,female,0,0,faces,A,female,EX,F,3,E09,8.599609375
0,1,0,24183,3.099609375,0.23046875,6,0,9,40,13,956.176391601562,456.016143798828,0,1,faces,male,0,0,faces,A,female,EX,F,3,E09,8.599609375
2,1,0,24185,3.771484375,0.232421875,7,0,2,5,15,572.34375,552.379821777344,0,1,objects,small,0,0,faces,A,female,EX,F,3,E09,8.599609375
0,1,0,24204,0.380859375,0.236328125,1,1,3,13,2,668.601257324219,460.462707519531,0,1,faces,male,1,1,objects,P,small,VS,O,4,E09,12.798828125
1,0,0,24205,0.666015625,0.291015625,2,1,5,39,3,968.488037109375,387.448638916016,1,0,NaN,NaN,1,1,objects,P,small,VS,O,4,E09,12.798828125
2,0,0,24207,1.12890625,0.48828125,3,1,5,39,5,946.513366699219,363.174377441406,1,0,NaN,NaN,1,1,objects,P,small,VS,O,4,E09,12.798828125
0,0,0,24208,1.666015625,0.265625,4,1,4,29,6,872.034057617188,271.787170410156,0,1,faces,male,1,1,objects,P,small,VS,O,4,E09,12.798828125
3,0,1,24209,1.9765625,0.1484375,5,0,5,39,7,972.395263671875,359.138946533203,1,0,NaN,NaN,1,1,objects,P,small,VS,O,4,E09,12.798828125
0,0,0,24211,2.6171875,0.3125,6,0,11,57,9,1140.03137207031,373.783721923828,0,1,faces,female,1,1,objects,P,small,VS,O,4,E09,12.798828125
0,0,0,24212,2.97265625,0.17578125,7,0,8,47,10,1079.24621582031,272.603851318359,0,1,objects,big,1,1,objects,P,small,VS,O,4,E09,12.798828125
4,0,0,24213,3.78515625,0.50390625,8,0,5,39,11,948.39892578125,365.540985107422,1,0,NaN,NaN,1,1,objects,P,small,VS,O,4,E09,12.798828125
0,1,1,24230,0.013671875,0.26171875,1,1,4,22,1,770.059265136719,478.740875244141,0,1,faces,male,0,0,faces,A,male,EX,F,5,E09,16.998046875
0,1,0,24233,0.89453125,0.22265625,2,1,15,75,4,1370.095703125,350.639831542969,0,1,objects,big,0,0,faces,A,male,EX,F,5,E09,16.998046875
1,1,0,24235,1.34765625,0.310546875,3,1,6,27,6,763.645446777344,962.04248046875,0,1,faces,female,0,0,faces,A,male,EX,F,5,E09,16.998046875
0,1,0,24237,2.0625,0.248046875,4,1,3,19,8,745.203674316406,166.118423461914,0,1,objects,big,0,0,faces,A,male,EX,F,5,E09,16.998046875
0,1,0,24239,2.525390625,0.20703125,5,0,14,73,10,1359.31506347656,164.227249145508,0,1,faces,female,0,0,faces,A,male,EX,F,5,E09,16.998046875
0,1,1,24242,3.109375,0.263671875,6,0,10,40,13,953.435974121094,478.788665771484,0,1,faces,male,0,0,faces,A,male,EX,F,5,E09,16.998046875
2,1,0,24244,3.623046875,0.2109375,7,0,6,27,15,750.877807617188,906.296875,0,1,faces,female,0,0,faces,A,male,EX,F,5,E09,16.998046875
0,1,0,24245,3.857421875,0.181640625,8,0,5,26,16,751.92529296875,849.484741210938,0,1,faces,female,0,0,faces,A,male,EX,F,5,E09,16.998046875
0,1,0,24259,0.58984375,0.2109375,1,1,6,29,2,868.880004882812,245.663940429688,0,1,faces,male,0,0,faces,P,male,VS,I,6,E09,21.197265625
0,1,1,24261,0.98828125,0.18359375,2,1,3,9,4,606.466857910156,929.617431640625,0,1,objects,big,0,0,faces,P,male,VS,I,6,E09,21.197265625
0,1,0,24263,1.37890625,0.259765625,3,1,2,8,6,536.516906738281,856.554626464844,0,1,faces,female,0,0,faces,P,male,VS,I,6,E09,21.197265625
0,1,1,24264,1.6953125,0.396484375,4,1,5,18,7,644.633605957031,978.124145507812,0,1,faces,male,0,0,faces,P,male,VS,I,6,E09,21.197265625
0,1,0,24266,2.23828125,0.234375,5,0,4,17,9,639.178344726562,866.938232421875,0,1,objects,big,0,0,faces,P,male,VS,I,6,E09,21.197265625
0,1,0,24267,2.556640625,0.19140625,6,0,14,72,10,1243.67578125,960.20458984375,0,1,objects,small,0,0,faces,P,male,VS,I,6,E09,21.197265625
0,1,0,24268,2.841796875,0.21484375,7,0,10,52,11,1052.14074707031,751.485656738281,0,1,faces,female,0,0,faces,P,male,VS,I,6,E09,21.197265625
0,1,0,24269,3.08984375,0.19921875,8,0,8,44,12,962.4580078125,864.984436035156,0,1,faces,female,0,0,faces,P,male,VS,I,6,E09,21.197265625
0,1,1,24271,3.482421875,0.212890625,9,0,15,78,14,1362.21118164062,657.823059082031,0,1,faces,male,0,0,faces,P,male,VS,I,6,E09,21.197265625
0,1,0,24272,3.787109375,0.17578125,10,0,13,67,15,1224.24047851562,440.282653808594,0,1,faces,female,0,0,faces,P,male,VS,I,6,E09,21.197265625
0,1,0,24292,0.68359375,0.25390625,1,1,13,72,4,1265.9677734375,924.359680175781,0,1,faces,male,1,0,objects,P,big,VS,O,7,E09,25.396484375
0,1,0,24293,0.9765625,0.201171875,2,1,12,71,5,1265.49328613281,804.310363769531,0,1,objects,small,1,0,objects,P,big,VS,O,7,E09,25.396484375
0,1,0,24294,1.19921875,0.232421875,3,1,11,70,6,1268.67749023438,740.993530273438,0,1,objects,big,1,0,objects,P,big,VS,O,7,E09,25.396484375
0,1,0,24295,1.48046875,0.1171875,4,1,9,42,7,959.931884765625,649.923400878906,0,1,faces,female,1,0,objects,P,big,VS,O,7,E09,25.396484375
0,1,0,24296,1.64453125,0.193359375,5,0,6,16,8,636.209228515625,734.134521484375,0,1,faces,male,1,0,objects,P,big,VS,O,7,E09,25.396484375
0,1,0,24297,1.939453125,0.197265625,6,0,3,4,9,562.052917480469,465.466888427734,0,1,objects,big,1,0,objects,P,big,VS,O,7,E09,25.396484375
0,1,0,24298,2.197265625,0.251953125,7,0,2,2,10,552.340637207031,214.750946044922,0,1,faces,male,1,0,objects,P,big,VS,O,7,E09,25.396484375
0,1,1,24299,2.568359375,0.11328125,8,0,7,29,11,880.550537109375,270.177642822266,1,0,NaN,NaN,1,0,objects,P,big,VS,O,7,E09,25.396484375
1,1,0,24308,0.40625,0.234375,1,1,5,31,3,841.614318847656,401.977264404297,0,1,faces,male,0,0,faces,P,male,VS,F,8,E09,29.595703125
1,1,0,24309,0.775390625,0.1640625,2,1,10,45,4,985.945495605469,929.835266113281,0,1,objects,small,0,0,faces,P,male,VS,F,8,E09,29.595703125
2,1,1,24312,1.2890625,0.15234375,3,1,5,31,7,859.877685546875,444.975555419922,0,1,faces,male,0,0,faces,P,male,VS,F,8,E09,29.595703125
0,1,0,24314,1.78125,0.15234375,4,1,15,79,9,1311.9765625,760.935424804688,0,1,objects,small,0,0,faces,P,male,VS,F,8,E09,29.595703125
0,1,0,24315,1.955078125,0.173828125,5,0,14,70,10,1268.84240722656,751.852172851562,0,1,faces,male,0,0,faces,P,male,VS,F,8,E09,29.595703125
2,1,1,24316,2.17578125,0.181640625,6,0,10,45,11,969.418701171875,955.799499511719,0,1,objects,small,0,0,faces,P,male,VS,F,8,E09,29.595703125
0,1,0,24318,2.470703125,0.138671875,7,0,7,36,13,842.687072753906,960.530029296875,0,1,faces,female,0,0,faces,P,male,VS,F,8,E09,29.595703125
0,1,0,24319,2.6796875,0.291015625,8,0,12,63,14,1152.28857421875,954.647766113281,0,1,faces,male,0,0,faces,P,male,VS,F,8,E09,29.595703125
0,1,0,24320,3,0.15625,9,0,11,54,15,1066.69848632812,955.9619140625,0,1,faces,male,0,0,faces,P,male,VS,F,8,E09,29.595703125
0,1,0,24322,3.404296875,0.212890625,10,0,2,15,17,649.802917480469,652.585021972656,0,1,objects,big,0,0,faces,P,male,VS,F,8,E09,29.595703125
0,1,1,24323,3.65234375,0.173828125,11,0,1,8,18,520.934936523438,874.6708984375,0,1,faces,female,0,0,faces,P,male,VS,F,8,E09,29.595703125
0,1,1,24339,0.3125,0.1796875,1,1,1,2,1,594.401794433594,258.633209228516,0,1,faces,male,0,0,faces,A,male,EX,I,9,E09,33.794921875
0,1,0,24341,1.115234375,0.265625,2,1,3,6,3,541.851623535156,638.199096679688,0,1,faces,male,0,0,faces,A,male,EX,I,9,E09,33.794921875
0,1,0,24342,1.462890625,0.15234375,3,1,8,43,4,919.86669921875,737.68359375,0,1,faces,male,0,0,faces,A,male,EX,I,9,E09,33.794921875
0,1,0,24344,1.80859375,0.162109375,4,1,12,68,6,1237.05786132812,531.54248046875,0,1,objects,big,0,0,faces,A,male,EX,I,9,E09,33.794921875
0,1,0,24345,2,0.38671875,5,0,9,59,7,1170.97839355469,535.179809570312,0,1,objects,big,0,0,faces,A,male,EX,I,9,E09,33.794921875
0,1,0,24347,2.62890625,0.701171875,6,0,11,66,9,1262.96411132812,341.167205810547,0,1,faces,female,0,0,faces,A,male,EX,I,9,E09,33.794921875
0,1,0,24349,3.640625,0.125,7,0,2,5,11,601.485961914062,567.194885253906,0,1,objects,small,0,0,faces,A,male,EX,I,9,E09,33.794921875
1,1,0,24365,0.294921875,0.115234375,1,1,10,43,1,998.770874023438,776.396850585938,0,1,faces,male,0,0,faces,A,male,VS,I,10,E09,37.994140625
1,1,0,24366,0.5390625,0.16015625,2,1,1,7,2,580.8310546875,758.634582519531,0,1,faces,male,0,0,faces,A,male,VS,I,10,E09,37.994140625
0,1,0,24368,0.83203125,0.298828125,3,1,3,9,4,531.145812988281,927.436767578125,0,1,faces,female,0,0,faces,A,male,VS,I,10,E09,37.994140625
0,1,1,24369,1.154296875,0.390625,4,1,2,8,5,530.540588378906,852.918762207031,0,1,faces,male,0,0,faces,A,male,VS,I,10,E09,37.994140625
2,1,1,24371,1.9140625,0.16015625,5,0,1,7,7,581.642883300781,726.598510742188,0,1,faces,male,0,0,faces,A,male,VS,I,10,E09,37.994140625
0,1,0,24374,2.501953125,0.130859375,6,0,15,71,10,1269.0595703125,836.05078125,0,1,faces,female,0,0,faces,A,male,VS,I,10,E09,37.994140625
0,1,0,24375,2.673828125,0.134765625,7,0,13,61,11,1140.69213867188,735.657348632812,0,1,faces,female,0,0,faces,A,male,VS,I,10,E09,37.994140625
2,1,1,24376,2.845703125,0.15234375,8,0,10,43,12,971.256896972656,743.605895996094,0,1,faces,male,0,0,faces,A,male,VS,I,10,E09,37.994140625
0,1,0,24379,3.4140625,0.16796875,9,0,7,22,15,772.048400878906,439.578521728516,0,1,objects,small,0,0,faces,A,male,VS,I,10,E09,37.994140625
0,1,0,24380,3.6640625,0.140625,10,0,4,11,16,672.819030761719,276.717437744141,0,1,faces,male,0,0,faces,A,male,VS,I,10,E09,37.994140625
0,1,0,24400,0.248046875,0.119140625,1,1,7,36,2,838.754699707031,906.74755859375,0,1,objects,small,1,1,faces,P,female,VS,I,11,E09,42.193359375
0,1,0,24402,0.580078125,0.150390625,2,1,2,15,4,642.611022949219,625.616516113281,0,1,faces,female,1,1,faces,P,female,VS,I,11,E09,42.193359375
0,0,0,24403,0.765625,0.2109375,3,1,1,14,5,643.294372558594,556.089782714844,1,0,NaN,NaN,1,1,faces,P,female,VS,I,11,E09,42.193359375
0,0,1,24404,3.083984375,0.189453125,4,1,5,32,6,854.932800292969,529.432861328125,0,1,objects,big,1,1,faces,P,female,VS,I,11,E09,42.193359375
0,1,0,24425,0.37890625,0.107421875,1,1,13,49,2,1045.58972167969,452.052703857422,0,1,faces,male,0,1,objects,A,big,VS,O,12,E09,46.392578125
0,1,1,24427,0.7265625,0.181640625,2,1,5,21,4,809.598205566406,346.928497314453,0,1,objects,big,0,1,objects,A,big,VS,O,12,E09,46.392578125
0,1,0,24430,1.287109375,0.236328125,3,1,11,43,7,930.454711914062,698.523254394531,0,1,objects,big,0,1,objects,A,big,VS,O,12,E09,46.392578125
0,1,1,24431,1.591796875,0.19921875,4,1,12,47,8,1012.87683105469,249.748825073242,0,1,objects,small,0,1,objects,A,big,VS,O,12,E09,46.392578125
0,1,0,24435,2.4296875,0.306640625,5,0,3,5,12,549.551940917969,542.559509277344,0,1,objects,big,0,1,objects,A,big,VS,O,12,E09,46.392578125
0,1,0,24436,2.80078125,0.28125,6,0,1,2,13,541.939697265625,254.892196655273,0,1,objects,small,0,1,objects,A,big,VS,O,12,E09,46.392578125
0,1,0,24437,3.16796875,0.21484375,7,0,14,64,14,1266.09057617188,145.277587890625,0,1,faces,male,0,1,objects,A,big,VS,O,12,E09,46.392578125
0,1,0,24440,3.82421875,0.26953125,8,0,4,16,17,691.084594726562,769.297668457031,0,1,faces,female,0,1,objects,A,big,VS,O,12,E09,46.392578125
0,1,0,24453,0.771484375,0.23828125,1,1,3,8,4,519.138061523438,867.104614257812,0,1,faces,male,1,1,faces,P,female,VS,I,13,E09,50.591796875
0,1,0,24455,1.23046875,0.166015625,2,1,2,5,6,530.402099609375,524.948181152344,0,1,faces,female,1,1,faces,P,female,VS,I,13,E09,50.591796875
0,1,0,24457,1.53515625,0.30078125,3,1,1,2,8,560.668334960938,256.979278564453,0,1,objects,small,1,1,faces,P,female,VS,I,13,E09,50.591796875
0,1,1,24458,1.873046875,0.173828125,4,1,4,12,9,655.487426757812,359.012359619141,1,0,NaN,NaN,1,1,faces,P,female,VS,I,13,E09,50.591796875
0,0,0,24462,3.927734375,0.17578125,5,0,15,75,13,1349.59692382812,338.724304199219,0,1,faces,female,1,1,faces,P,female,VS,I,13,E09,50.591796875
0,1,0,24472,0.3828125,0.263671875,1,1,4,16,2,700.271667480469,736.736022949219,0,1,faces,male,0,1,objects,A,small,VS,O,14,E09,54.791015625
0,1,0,24475,1.330078125,0.205078125,2,1,2,3,5,550.368957519531,339.154388427734,0,1,faces,female,0,1,objects,A,small,VS,O,14,E09,54.791015625
0,1,1,24477,1.8046875,0.17578125,3,1,11,60,7,1169.47912597656,654.781494140625,0,1,objects,small,0,1,objects,A,small,VS,O,14,E09,54.791015625
0,1,1,24479,2.234375,0.212890625,4,1,8,38,9,996.116088867188,240.016174316406,0,1,objects,big,0,1,objects,A,small,VS,O,14,E09,54.791015625
0,1,0,24491,0.322265625,0.396484375,1,1,6,20,1,771.434631347656,228.594619750977,0,1,faces,female,0,0,objects,A,small,EX,O,15,E09,58.990234375
0,1,0,24493,0.984375,0.25390625,2,1,1,8,3,532.19921875,832.519104003906,0,1,faces,female,0,0,objects,A,small,EX,O,15,E09,58.990234375
0,1,0,24494,1.32421875,0.224609375,3,1,8,33,4,890.81591796875,652.37158203125,0,1,objects,big,0,0,objects,A,small,EX,O,15,E09,58.990234375
1,1,0,24495,1.58203125,0.31640625,4,1,9,42,5,943.215881347656,642.190979003906,0,1,objects,small,0,0,objects,A,small,EX,O,15,E09,58.990234375
0,1,0,24496,1.953125,0.30078125,5,0,13,58,6,1193.18774414062,471.167602539062,0,1,faces,male,0,0,objects,A,small,EX,O,15,E09,58.990234375
2,1,0,24497,3.265625,0.287109375,6,0,9,42,7,940.002136230469,645.288818359375,0,1,objects,small,0,0,objects,A,small,EX,O,15,E09,58.990234375
0,1,1,24515,0.388671875,0.20703125,1,1,5,19,1,768.34912109375,159.707015991211,0,1,objects,big,0,0,faces,P,female,VS,F,16,E09,63.189453125
0,1,1,24517,0.892578125,0.14453125,2,1,14,75,3,1331.87878417969,315.810607910156,0,1,objects,small,0,0,faces,P,female,VS,F,16,E09,63.189453125
1,1,0,24520,1.662109375,0.16796875,3,1,8,35,6,852.686706542969,872.945068359375,0,1,faces,female,0,0,faces,P,female,VS,F,16,E09,63.189453125
0,1,0,24521,1.875,0.1875,4,1,3,9,7,533.850158691406,964.946716308594,0,1,objects,big,0,0,faces,P,female,VS,F,16,E09,63.189453125
0,1,1,24522,2.1171875,0.234375,5,0,2,7,8,527.247924804688,722.796264648438,0,1,faces,male,0,0,faces,P,female,VS,F,16,E09,63.189453125
0,1,0,24524,2.513671875,0.2265625,6,0,6,25,10,746.611999511719,743.054504394531,0,1,faces,male,0,0,faces,P,female,VS,F,16,E09,63.189453125
1,1,0,24525,2.830078125,0.111328125,7,0,11,60,11,1205.07299804688,666.0185546875,0,1,faces,female,0,0,faces,P,female,VS,F,16,E09,63.189453125
0,1,0,24526,3.048828125,0.341796875,8,0,9,42,12,971.572937011719,634.874694824219,0,1,faces,male,0,0,faces,P,female,VS,F,16,E09,63.189453125
2,1,0,24527,3.435546875,0.1328125,9,0,11,60,13,1191.51550292969,643.124694824219,0,1,faces,female,0,0,faces,P,female,VS,F,16,E09,63.189453125
0,1,0,24528,3.61328125,0.189453125,10,0,10,54,14,1051.71337890625,911.725769042969,0,1,faces,female,0,0,faces,P,female,VS,F,16,E09,63.189453125
2,1,0,24529,3.90625,0.158203125,11,0,8,35,15,837.831237792969,880.249694824219,0,1,faces,female,0,0,faces,P,female,VS,F,16,E09,63.189453125
0,1,0,24541,0.294921875,0.14453125,1,1,5,32,2,888.759948730469,517.145568847656,0,1,faces,male,0,0,faces,A,female,VS,F,17,E09,67.388671875
1,1,0,24542,0.4765625,0.296875,2,1,8,50,3,1049.16369628906,532.841735839844,0,1,faces,female,0,0,faces,A,female,VS,F,17,E09,67.388671875
0,1,1,24545,1.208984375,0.1484375,3,1,3,9,6,564.656433105469,924.839111328125,0,1,faces,male,0,0,faces,A,female,VS,F,17,E09,67.388671875
2,1,1,24547,1.58984375,0.115234375,4,1,8,50,8,1071.71630859375,589.450988769531,0,1,faces,female,0,0,faces,A,female,VS,F,17,E09,67.388671875
0,1,1,24549,2.130859375,0.197265625,5,0,14,76,10,1370.26965332031,419.398590087891,0,1,faces,female,0,0,faces,A,female,VS,F,17,E09,67.388671875
0,1,0,24553,2.904296875,0.1484375,6,0,10,64,14,1282.76477050781,130.735549926758,0,1,faces,female,0,0,faces,A,female,VS,F,17,E09,67.388671875
3,1,1,24555,3.259765625,0.13671875,7,0,8,50,16,1091.92944335938,541.499389648438,0,1,faces,female,0,0,faces,A,female,VS,F,17,E09,67.388671875
0,1,0,24565,0.185546875,0.27734375,1,1,9,41,1,934.83837890625,531.051208496094,0,1,faces,male,1,1,faces,P,female,VS,F,18,E09,71.587890625
1,1,0,24566,0.509765625,0.166015625,2,1,11,53,2,1047.29260253906,835.029235839844,1,0,NaN,NaN,1,1,faces,P,female,VS,F,18,E09,71.587890625
0,1,1,24567,0.72265625,0.23828125,3,1,7,26,3,745.6474609375,864.486450195312,0,1,faces,female,1,1,faces,P,female,VS,F,18,E09,71.587890625
2,1,1,24569,1.0703125,0.1171875,4,1,11,53,5,1013.10046386719,837.486755371094,1,0,NaN,NaN,1,1,faces,P,female,VS,F,18,E09,71.587890625
0,0,0,24572,2.42578125,0.201171875,5,0,8,28,8,868.555969238281,125.328483581543,0,1,objects,big,1,1,faces,P,female,VS,F,18,E09,71.587890625
0,0,1,24573,2.703125,0.138671875,6,0,12,55,9,1176.36694335938,160.219192504883,0,1,faces,female,1,1,faces,P,female,VS,F,18,E09,71.587890625
0,0,0,24575,3.076171875,0.197265625,7,0,15,74,11,1321.27734375,219.287521362305,0,1,faces,male,1,1,faces,P,female,VS,F,18,E09,71.587890625
0,0,0,24576,3.3046875,0.14453125,8,0,14,65,12,1254.45483398438,234.15461730957,0,1,faces,female,1,1,faces,P,female,VS,F,18,E09,71.587890625
3,0,0,24577,3.533203125,0.15625,9,0,11,53,13,1068.31311035156,863.33642578125,1,0,NaN,NaN,1,1,faces,P,female,VS,F,18,E09,71.587890625
0,1,1,24589,0.451171875,0.12890625,1,1,5,32,1,855.555114746094,492.750366210938,0,1,faces,male,1,1,faces,P,female,VS,F,19,E09,75.787109375
0,1,1,24593,1.14453125,0.140625,2,1,3,24,5,727.990478515625,675.483154296875,0,1,faces,female,1,1,faces,P,female,VS,F,19,E09,75.787109375
0,1,1,24595,1.490234375,0.15625,3,1,2,7,7,516.982055664062,750.371826171875,0,1,faces,female,1,1,faces,P,female,VS,F,19,E09,75.787109375
0,1,0,24597,1.884765625,0.12890625,4,1,7,45,9,929.187561035156,984.7041015625,0,1,objects,big,1,1,faces,P,female,VS,F,19,E09,75.787109375
0,1,0,24598,2.048828125,0.259765625,5,0,6,36,10,845.938720703125,949.840270996094,0,1,faces,female,1,1,faces,P,female,VS,F,19,E09,75.787109375
0,1,1,24600,2.55078125,0.166015625,6,0,12,70,12,1243.78381347656,744.133422851562,0,1,faces,female,1,1,faces,P,female,VS,F,19,E09,75.787109375
0,1,0,24602,2.84375,0.251953125,7,0,15,77,14,1378.35620117188,540.724731445312,0,1,faces,male,1,1,faces,P,female,VS,F,19,E09,75.787109375
0,1,0,24604,3.359375,0.11328125,8,0,9,47,16,1085.89086914062,214.461685180664,0,1,objects,big,1,1,faces,P,female,VS,F,19,E09,75.787109375
0,0,0,24605,3.501953125,1.05078125,9,0,8,46,17,1057.45068359375,142.82958984375,1,0,NaN,NaN,1,1,faces,P,female,VS,F,19,E09,75.787109375
0,1,0,24616,0.421875,0.138671875,1,1,8,24,2,712.341064453125,683.159301757812,0,1,faces,female,0,1,faces,A,male,VS,F,20,E09,79.986328125
0,1,1,24617,0.603515625,0.201171875,2,1,10,27,3,756.030578613281,935.338073730469,0,1,faces,male,0,1,faces,A,male,VS,F,20,E09,79.986328125
0,1,0,24621,1.455078125,0.26953125,3,1,6,14,7,654.001953125,572.41650390625,0,1,faces,female,0,1,faces,A,male,VS,F,20,E09,79.986328125
0,1,0,24623,1.951171875,0.166015625,4,1,3,3,9,543.478271484375,327.522247314453,0,1,objects,small,0,1,faces,A,male,VS,F,20,E09,79.986328125
0,1,1,24624,2.146484375,0.154296875,5,0,2,2,10,545.287902832031,190.948608398438,0,1,faces,male,0,1,faces,A,male,VS,F,20,E09,79.986328125
0,1,0,24627,2.705078125,0.162109375,6,0,5,12,13,654.752380371094,337.082336425781,0,1,faces,male,0,1,faces,A,male,VS,F,20,E09,79.986328125
0,1,1,24629,3.197265625,0.12109375,7,0,12,31,15,894.135131835938,463.222534179688,0,1,faces,female,0,1,faces,A,male,VS,F,20,E09,79.986328125
0,1,1,24631,3.609375,0.123046875,8,0,15,67,17,1289.94799804688,444.878051757812,0,1,faces,male,0,1,faces,A,male,VS,F,20,E09,79.986328125
0,1,1,24642,0.037109375,0.169921875,1,1,10,41,1,985.126342773438,504.196105957031,0,1,faces,male,1,1,objects,P,small,VS,O,21,E09,84.185546875
1,1,1,24644,0.419921875,0.130859375,2,1,11,48,3,1023.68444824219,356.7177734375,1,0,NaN,NaN,1,1,objects,P,small,VS,O,21,E09,84.185546875
0,0,0,24648,1.826171875,0.13671875,3,1,12,63,7,1119.70288085938,944.229553222656,0,1,faces,male,1,1,objects,P,small,VS,O,21,E09,84.185546875
0,0,0,24650,2.251953125,0.13671875,4,1,1,12,9,645.1142578125,328.158386230469,0,1,faces,female,1,1,objects,P,small,VS,O,21,E09,84.185546875
2,0,0,24651,2.462890625,0.353515625,5,0,11,48,10,1041.45385742188,333.102478027344,1,0,NaN,NaN,1,1,objects,P,small,VS,O,21,E09,84.185546875
0,0,0,24653,3.08984375,0.146484375,6,0,4,25,12,740.921630859375,724.562194824219,0,1,faces,female,1,1,objects,P,small,VS,O,21,E09,84.185546875
0,0,0,24654,3.2734375,0.140625,7,0,2,23,13,756.510131835938,590.204467773438,0,1,faces,male,1,1,objects,P,small,VS,O,21,E09,84.185546875
3,0,0,24655,3.490234375,0.234375,8,0,11,48,14,1061.51953125,309.779327392578,1,0,NaN,NaN,1,1,objects,P,small,VS,O,21,E09,84.185546875
0,1,0,24666,0.1875,0.240234375,1,1,13,49,1,1010.70153808594,411.690368652344,0,1,faces,male,0,1,objects,A,big,EX,O,22,E09,88.384765625
0,1,0,24667,0.462890625,0.216796875,2,1,10,40,2,910.89013671875,446.242492675781,0,1,faces,male,0,1,objects,A,big,EX,O,22,E09,88.384765625
0,1,1,24670,1.185546875,0.21484375,3,1,3,8,5,555.634338378906,848.309997558594,0,1,faces,male,0,1,objects,A,big,EX,O,22,E09,88.384765625
0,1,1,24672,1.654296875,0.162109375,4,1,1,3,7,593.524536132812,363.858703613281,0,1,objects,big,0,1,objects,A,big,EX,O,22,E09,88.384765625
0,1,0,24674,2.158203125,0.337890625,5,0,4,11,9,649.319519042969,230.200531005859,0,1,faces,female,0,1,objects,A,big,EX,O,22,E09,88.384765625
0,1,0,24675,2.541015625,0.591796875,6,0,6,28,10,836.611206054688,128.010986328125,0,1,objects,big,0,1,objects,A,big,EX,O,22,E09,88.384765625
0,1,0,24677,3.677734375,0.26171875,7,0,8,31,12,818.822814941406,460.999206542969,0,1,objects,small,0,1,objects,A,big,EX,O,22,E09,88.384765625
0,1,0,24678,3.984375,0.30078125,8,0,2,5,13,601.049743652344,510.155700683594,0,1,faces,male,0,1,objects,A,big,EX,O,22,E09,88.384765625
0,1,0,24692,0.306640625,0.11328125,1,1,13,51,2,1042.86682128906,636.975891113281,0,1,objects,big,1,1,faces,P,female,VS,I,23,E09,92.583984375
0,1,0,24693,0.48046875,0.248046875,2,1,8,31,3,888.71923828125,430.134674072266,0,1,faces,female,1,1,faces,P,female,VS,I,23,E09,92.583984375
0,1,0,24696,1.109375,0.142578125,3,1,2,8,6,569.049133300781,879.728942871094,0,1,faces,male,1,1,faces,P,female,VS,I,23,E09,92.583984375
0,1,0,24698,1.52734375,0.111328125,4,1,9,35,8,841.06982421875,859.6123046875,0,1,faces,female,1,1,faces,P,female,VS,I,23,E09,92.583984375
0,1,0,24702,2.1484375,0.15625,5,0,15,63,12,1159.26525878906,939.754272460938,0,1,faces,male,1,1,faces,P,female,VS,I,23,E09,92.583984375
1,0,0,24703,2.3828125,0.20703125,6,0,14,55,13,1156.73876953125,133.038162231445,1,0,NaN,NaN,1,1,faces,P,female,VS,I,23,E09,92.583984375
2,0,0,24705,2.751953125,0.248046875,7,0,14,55,15,1151.78637695312,136.565643310547,1,0,NaN,NaN,1,1,faces,P,female,VS,I,23,E09,92.583984375
0,0,0,24708,3.404296875,0.228515625,8,0,1,4,18,542.885864257812,425.956115722656,0,1,faces,female,1,1,faces,P,female,VS,I,23,E09,92.583984375
3,0,0,24710,3.939453125,0.115234375,9,0,14,55,20,1122.03271484375,152.049423217773,1,0,NaN,NaN,1,1,faces,P,female,VS,I,23,E09,92.583984375
1,1,0,24720,0.310546875,0.248046875,1,1,4,32,2,861.775634765625,517.150939941406,0,1,objects,big,0,0,faces,A,female,EX,I,24,E09,96.783203125
0,1,0,24721,0.63671875,0.296875,2,1,1,1,3,561.163879394531,166.905883789062,0,1,faces,male,0,0,faces,A,female,EX,I,24,E09,96.783203125
0,1,0,24722,1.517578125,0.18359375,3,1,2,7,4,568.975341796875,733.966613769531,0,1,faces,female,0,0,faces,A,female,EX,I,24,E09,96.783203125
0,1,0,24723,1.736328125,0.34375,4,1,3,15,5,643.705505371094,669.227111816406,0,1,objects,small,0,0,faces,A,female,EX,I,24,E09,96.783203125
2,1,0,24724,2.12890625,0.212890625,5,0,4,32,6,849.227478027344,547.705078125,0,1,objects,big,0,0,faces,A,female,EX,I,24,E09,96.783203125
0,1,1,24726,3.244140625,0.185546875,6,0,10,52,8,1062.69641113281,707.875732421875,0,1,faces,male,0,0,faces,A,female,EX,I,24,E09,96.783203125
0,1,0,24728,3.591796875,0.25,7,0,13,78,10,1396.46923828125,621.781005859375,0,1,objects,small,0,0,faces,A,female,EX,I,24,E09,96.783203125
0,1,0,24729,3.8828125,0.134765625,8,0,12,76,11,1348.27893066406,451.868713378906,0,1,faces,female,0,0,faces,A,female,EX,I,24,E09,96.783203125
0,1,0,24749,0.3359375,0.162109375,1,1,1,3,1,600.303466796875,315.453002929688,0,1,objects,small,1,0,faces,P,female,VS,F,25,E09,100.982421875
0,1,0,24751,0.783203125,0.17578125,2,1,3,10,3,660.693725585938,167.334823608398,0,1,objects,big,1,0,faces,P,female,VS,F,25,E09,100.982421875
0,1,1,24752,0.98828125,0.208984375,3,1,4,11,4,646.896484375,235.017837524414,0,1,faces,female,1,0,faces,P,female,VS,F,25,E09,100.982421875
0,0,1,24755,1.501953125,0.234375,4,1,2,6,7,537.2158203125,656.576110839844,1,0,NaN,NaN,1,0,faces,P,female,VS,F,25,E09,100.982421875
0,0,0,24757,2.0078125,0.150390625,5,0,10,63,9,1126.48913574219,919.913330078125,0,1,objects,big,1,0,faces,P,female,VS,F,25,E09,100.982421875
0,0,0,24758,2.19921875,0.234375,6,0,5,44,10,1000.92132568359,853.608154296875,0,1,faces,male,1,0,faces,P,female,VS,F,25,E09,100.982421875
0,0,0,24759,2.47265625,0.189453125,7,0,7,52,11,1061.72521972656,765.40771484375,0,1,objects,big,1,0,faces,P,female,VS,F,25,E09,100.982421875
0,0,0,24760,2.734375,0.181640625,8,0,14,77,12,1346.63220214844,556.650939941406,0,1,faces,male,1,0,faces,P,female,VS,F,25,E09,100.982421875
0,0,0,24761,2.94921875,0.1640625,9,0,12,68,13,1266.41809082031,543.292663574219,0,1,faces,female,1,0,faces,P,female,VS,F,25,E09,100.982421875
0,0,0,24762,3.203125,0.173828125,10,0,9,56,14,1174.48754882812,192.743942260742,0,1,faces,male,1,0,faces,P,female,VS,F,25,E09,100.982421875
0,0,0,24763,3.41796875,0.125,11,0,6,47,15,1045.47229003906,236.535217285156,0,1,faces,male,1,0,faces,P,female,VS,F,25,E09,100.982421875
0,0,0,24764,3.59375,0.107421875,12,0,11,64,16,1272.84631347656,158.045913696289,0,1,faces,female,1,0,faces,P,female,VS,F,25,E09,100.982421875
0,0,0,24765,3.79296875,0.142578125,13,0,15,81,17,1313.78747558594,954.153137207031,0,1,objects,small,1,0,faces,P,female,VS,F,25,E09,100.982421875
0,1,0,24778,0.283203125,0.185546875,1,1,3,31,1,870.647094726562,413.063598632812,0,1,objects,big,1,1,faces,P,female,VS,F,26,E09,105.181640625
0,1,0,24779,0.4921875,0.11328125,2,1,2,30,2,871.323425292969,377.502807617188,0,1,faces,male,1,1,faces,P,female,VS,F,26,E09,105.181640625
0,1,0,24781,0.88671875,0.28515625,3,1,4,36,4,853.151123046875,950.453002929688,0,1,faces,female,1,1,faces,P,female,VS,F,26,E09,105.181640625
0,1,1,24782,1.26171875,0.12890625,4,1,7,42,5,943.383972167969,626.781372070312,0,1,faces,male,1,1,faces,P,female,VS,F,26,E09,105.181640625
0,1,1,24784,1.619140625,0.146484375,5,0,15,80,7,1355.73840332031,863.757751464844,0,1,faces,male,1,1,faces,P,female,VS,F,26,E09,105.181640625
0,1,0,24786,1.98046875,0.12890625,6,0,14,79,9,1391.24694824219,751.547546386719,0,1,faces,male,1,1,faces,P,female,VS,F,26,E09,105.181640625
0,0,1,24788,2.265625,0.326171875,7,0,11,68,11,1276.93090820312,544.914001464844,1,0,NaN,NaN,1,1,faces,P,female,VS,F,26,E09,105.181640625
0,0,1,24791,3.244140625,0.189453125,8,0,10,66,14,1270.53112792969,351.864624023438,0,1,faces,male,1,1,faces,P,female,VS,F,26,E09,105.181640625
0,1,1,24803,0.37890625,0.177734375,1,1,2,14,2,669.916748046875,557.932983398438,0,1,faces,female,0,1,faces,A,female,VS,I,27,E09,109.380859375
0,1,0,24805,0.775390625,0.30078125,2,1,5,19,4,733.347351074219,156.733856201172,0,1,objects,small,0,1,faces,A,female,VS,I,27,E09,109.380859375
1,1,1,24806,1.1484375,0.26953125,3,1,4,17,5,632.727233886719,831.642150878906,0,1,faces,female,0,1,faces,A,female,VS,I,27,E09,109.380859375
0,1,0,24808,1.61328125,0.287109375,4,1,3,16,7,640.387573242188,753.583801269531,0,1,faces,female,0,1,faces,A,female,VS,I,27,E09,109.380859375
2,1,1,24809,1.939453125,0.154296875,5,0,4,17,8,630.666259765625,888.390258789062,0,1,faces,female,0,1,faces,A,female,VS,I,27,E09,109.380859375
0,1,1,24811,2.43359375,0.177734375,6,0,13,63,10,1145.46630859375,928.742614746094,0,1,faces,male,0,1,faces,A,female,VS,I,27,E09,109.380859375
0,1,0,24813,2.794921875,0.21484375,7,0,12,62,12,1164.97058105469,850.302001953125,0,1,faces,male,0,1,faces,A,female,VS,I,27,E09,109.380859375
0,1,0,24814,3.05859375,0.205078125,8,0,15,80,13,1375.07495117188,812.867736816406,0,1,faces,male,0,1,faces,A,female,VS,I,27,E09,109.380859375
0,1,0,24815,3.349609375,0.154296875,9,0,14,69,14,1254.60949707031,623.273376464844,0,1,faces,female,0,1,faces,A,female,VS,I,27,E09,109.380859375
0,1,1,24816,3.55078125,0.16796875,10,0,11,58,15,1178.72595214844,468.493011474609,0,1,faces,female,0,1,faces,A,female,VS,I,27,E09,109.380859375
0,1,0,24818,3.861328125,0.240234375,11,0,9,48,17,1060.06530761719,344.099884033203,0,1,faces,female,0,1,faces,A,female,VS,I,27,E09,109.380859375
1,1,1,24834,0.287109375,0.154296875,1,1,7,21,1,719.053161621094,356.839447021484,0,1,faces,female,0,0,faces,A,female,EX,I,28,E09,113.580078125
0,1,0,24836,0.72265625,0.28515625,2,1,3,11,3,659.275207519531,246.759201049805,0,1,objects,small,0,0,faces,A,female,EX,I,28,E09,113.580078125
0,1,1,24837,1.1015625,0.169921875,3,1,1,9,4,555.722961425781,914.195373535156,0,1,faces,male,0,0,faces,A,female,EX,I,28,E09,113.580078125
0,1,1,24840,1.666015625,0.2265625,4,1,11,51,7,1062.07739257812,652.059631347656,0,1,faces,male,0,0,faces,A,female,EX,I,28,E09,113.580078125
0,1,0,24842,2.123046875,0.3984375,5,0,15,77,9,1388.43615722656,523.641357421875,0,1,faces,female,0,0,faces,A,female,EX,I,28,E09,113.580078125
1,1,1,24843,2.578125,0.19921875,6,0,10,40,10,937.211547851562,428.756011962891,0,1,faces,female,0,0,faces,A,female,EX,I,28,E09,113.580078125
2,1,1,24845,3.1328125,0.216796875,7,0,7,21,12,739.209838867188,353.376586914062,0,1,faces,female,0,0,faces,A,female,EX,I,28,E09,113.580078125
2,1,0,24848,3.865234375,0.4453125,8,0,10,40,15,955.160766601562,446.810211181641,0,1,faces,female,0,0,faces,A,female,EX,I,28,E09,113.580078125
0,1,0,24866,0.21484375,0.255859375,1,1,4,32,1,827.195190429688,509.400695800781,0,1,objects,small,0,0,faces,P,male,VS,I,29,E09,117.779296875
0,1,1,24868,0.666015625,0.158203125,2,1,2,16,3,650.600341796875,727.622131347656,0,1,faces,male,0,0,faces,P,male,VS,I,29,E09,117.779296875
0,1,0,24870,1.0390625,0.12890625,3,1,12,70,5,1239.06567382812,772.258117675781,0,1,objects,big,0,0,faces,P,male,VS,I,29,E09,117.779296875
0,1,1,24871,1.283203125,0.158203125,4,1,7,42,6,923.96923828125,662.79931640625,0,1,faces,female,0,0,faces,P,male,VS,I,29,E09,117.779296875
0,1,0,24873,1.626953125,0.22265625,5,0,5,34,8,833.543090820312,787.419677734375,0,1,faces,male,0,0,faces,P,male,VS,I,29,E09,117.779296875
0,1,0,24875,2.087890625,0.1484375,6,0,1,11,10,665.740844726562,236.546020507812,0,1,faces,male,0,0,faces,P,male,VS,I,29,E09,117.779296875
0,1,0,24876,2.291015625,0.1953125,7,0,6,37,11,975.653686523438,124.733055114746,0,1,faces,female,0,0,faces,P,male,VS,I,29,E09,117.779296875
0,1,0,24877,2.53125,0.12890625,8,0,9,55,12,1148.23571777344,137.114608764648,0,1,faces,male,0,0,faces,P,male,VS,I,29,E09,117.779296875
1,1,1,24878,2.71875,0.13671875,9,0,3,22,13,720.929077148438,473.420593261719,0,1,objects,small,0,0,faces,P,male,VS,I,29,E09,117.779296875
0,1,0,24880,3.29296875,0.177734375,10,0,13,74,15,1318.99731445312,250.830184936523,0,1,faces,male,0,0,faces,P,male,VS,I,29,E09,117.779296875
0,1,0,24881,3.501953125,0.234375,11,0,10,65,16,1271.82800292969,220.465911865234,0,1,faces,female,0,0,faces,P,male,VS,I,29,E09,117.779296875
2,1,0,24882,3.802734375,0.20703125,12,0,3,22,17,743.737915039062,460.180328369141,0,1,objects,small,0,0,faces,P,male,VS,I,29,E09,117.779296875
0,1,0,24895,0.376953125,0.138671875,1,1,5,22,1,761.131896972656,408.769104003906,0,1,faces,male,0,1,faces,A,male,VS,F,30,E09,121.978515625
0,1,0,24896,0.583984375,0.177734375,2,1,1,8,2,579.096740722656,809.168884277344,0,1,objects,big,0,1,faces,A,male,VS,F,30,E09,121.978515625
0,1,1,24898,0.923828125,0.14453125,3,1,2,11,4,657.722229003906,277.682067871094,0,1,faces,male,0,1,faces,A,male,VS,F,30,E09,121.978515625
0,1,0,24900,1.46484375,0.15625,4,1,11,64,6,1271.5517578125,145.856628417969,0,1,objects,big,0,1,faces,A,male,VS,F,30,E09,121.978515625
0,1,0,24901,1.708984375,0.234375,5,0,4,19,7,772.000244140625,132.271896362305,0,1,faces,female,0,1,faces,A,male,VS,F,30,E09,121.978515625
0,1,0,24902,2.0546875,0.224609375,6,0,14,78,8,1350.18322753906,622.613647460938,0,1,faces,female,0,1,faces,A,male,VS,F,30,E09,121.978515625
0,1,0,24903,2.32421875,0.22265625,7,0,9,59,9,1174.4775390625,556.353820800781,0,1,faces,male,0,1,faces,A,male,VS,F,30,E09,121.978515625
0,1,0,24904,2.59375,0.32421875,8,0,8,40,10,943.452575683594,414.900360107422,0,1,faces,female,0,1,faces,A,male,VS,F,30,E09,121.978515625
0,1,0,24905,2.962890625,0.138671875,9,0,7,39,11,955.128723144531,336.754333496094,0,1,faces,female,0,1,faces,A,male,VS,F,30,E09,121.978515625
0,1,1,24906,3.169921875,0.212890625,10,0,12,66,12,1262.01086425781,341.387542724609,0,1,faces,male,0,1,faces,A,male,VS,F,30,E09,121.978515625
0,1,1,24908,3.607421875,0.294921875,11,0,15,79,14,1355.16284179688,724.468627929688,0,1,faces,male,0,1,faces,A,male,VS,F,30,E09,121.978515625
0,1,0,24929,0.4140625,0.177734375,1,1,3,13,3,709.278747558594,402.705139160156,0,1,objects,small,0,1,faces,A,male,VS,I,31,E09,126.177734375
0,1,0,24930,0.66015625,0.251953125,2,1,9,36,4,828.268493652344,956.427368164062,0,1,faces,female,0,1,faces,A,male,VS,I,31,E09,126.177734375
0,1,0,24931,0.982421875,0.146484375,3,1,12,54,5,1082.65942382812,961.288208007812,0,1,faces,male,0,1,faces,A,male,VS,I,31,E09,126.177734375
0,1,0,24932,1.197265625,0.26171875,4,1,8,25,6,743.908264160156,772.717041015625,0,1,objects,big,0,1,faces,A,male,VS,I,31,E09,126.177734375
0,1,0,24933,1.4921875,0.171875,5,0,4,17,7,631.073425292969,867.921630859375,0,1,objects,small,0,1,faces,A,male,VS,I,31,E09,126.177734375
0,1,0,24934,1.771484375,0.44921875,6,0,1,5,8,551.432250976562,548.505981445312,0,1,faces,male,0,1,faces,A,male,VS,I,31,E09,126.177734375
0,1,0,24936,2.54296875,0.1484375,7,0,14,58,10,1141.58166503906,447.425720214844,0,1,faces,female,0,1,faces,A,male,VS,I,31,E09,126.177734375
0,1,0,24937,2.763671875,0.28515625,8,0,2,11,11,701.813781738281,220.902389526367,0,1,faces,female,0,1,faces,A,male,VS,I,31,E09,126.177734375
0,1,0,24938,3.12890625,0.15234375,9,0,10,46,12,1075.12805175781,113.991645812988,0,1,faces,male,0,1,faces,A,male,VS,I,31,E09,126.177734375
0,1,0,24940,3.61328125,0.23828125,10,0,6,21,14,761.288269042969,316.670227050781,0,1,faces,male,0,1,faces,A,male,VS,I,31,E09,126.177734375
0,1,0,24952,0.3984375,0.263671875,1,1,15,81,2,1336.31164550781,917.631469726562,0,1,faces,female,0,1,objects,P,small,VS,O,32,E09,130.376953125
0,1,0,24954,0.923828125,0.142578125,2,1,6,32,4,853.125244140625,552.124877929688,0,1,faces,male,0,1,objects,P,small,VS,O,32,E09,130.376953125
0,1,0,24956,1.3203125,0.109375,3,1,9,58,6,1187.96008300781,473.371734619141,0,1,objects,big,0,1,objects,P,small,VS,O,32,E09,130.376953125
1,1,0,24957,1.458984375,0.322265625,4,1,10,59,7,1181.32458496094,553.752197265625,0,1,objects,big,0,1,objects,P,small,VS,O,32,E09,130.376953125
0,1,0,24958,1.818359375,0.158203125,5,0,13,69,8,1299.31921386719,645.853210449219,0,1,faces,male,0,1,objects,P,small,VS,O,32,E09,130.376953125
2,1,0,24959,2.017578125,0.294921875,6,0,10,59,9,1185.37878417969,550.591552734375,0,1,objects,big,0,1,objects,P,small,VS,O,32,E09,130.376953125
0,1,0,24966,3.509765625,0.224609375,7,0,2,21,16,773.380554199219,377.338928222656,0,1,faces,female,0,1,objects,P,small,VS,O,32,E09,130.376953125
0,1,0,24983,0.267578125,0.11328125,1,1,8,32,1,849.34130859375,587.59521484375,0,1,faces,female,0,1,objects,A,big,VS,O,33,E09,134.576171875
0,1,0,24984,0.421875,0.208984375,2,1,4,15,2,651.152770996094,636.636291503906,0,1,faces,male,0,1,objects,A,big,VS,O,33,E09,134.576171875
0,1,0,24986,0.85546875,0.3828125,3,1,2,7,4,527.71337890625,764.609558105469,0,1,objects,big,0,1,objects,A,big,VS,O,33,E09,134.576171875
0,1,0,24988,1.48828125,0.236328125,4,1,15,81,6,1360.23083496094,927.716247558594,0,1,objects,big,0,1,objects,A,big,VS,O,33,E09,134.576171875
0,1,0,24990,2.017578125,0.3203125,5,0,14,80,8,1384.98107910156,822.199401855469,0,1,objects,big,0,1,objects,A,big,VS,O,33,E09,134.576171875
0,1,0,24991,2.4140625,0.1953125,6,0,13,74,9,1395.85375976562,226.204727172852,0,1,faces,male,0,1,objects,A,big,VS,O,33,E09,134.576171875
0,1,0,24993,2.728515625,0.17578125,7,0,11,46,11,1023.15814208984,139.14030456543,0,1,faces,male,0,1,objects,A,big,VS,O,33,E09,134.576171875
0,1,0,24995,3.119140625,0.15625,8,0,1,1,13,553.799682617188,166.009368896484,0,1,faces,male,0,1,objects,A,big,VS,O,33,E09,134.576171875
0,1,0,24997,3.5546875,0.1171875,9,0,6,21,15,759.997131347656,364.284057617188,0,1,faces,female,0,1,objects,A,big,VS,O,33,E09,134.576171875
0,1,0,24998,3.73828125,0.17578125,10,0,10,38,16,954.432556152344,283.5908203125,0,1,faces,female,0,1,objects,A,big,VS,O,33,E09,134.576171875
0,1,1,25011,0.51953125,0.15234375,1,1,9,40,3,980.533752441406,432.395538330078,0,1,faces,female,0,1,faces,A,female,VS,F,34,E09,138.775390625
0,1,1,25013,1.26953125,0.1484375,2,1,7,23,5,735.127136230469,574.93603515625,0,1,faces,male,0,1,faces,A,female,VS,F,34,E09,138.775390625
1,1,0,25015,1.626953125,0.1484375,3,1,4,7,7,561.532287597656,713.102416992188,0,1,objects,big,0,1,faces,A,female,VS,F,34,E09,138.775390625
0,1,1,25016,1.853515625,0.13671875,4,1,2,4,8,557.513305664062,398.352752685547,0,1,faces,female,0,1,faces,A,female,VS,F,34,E09,138.775390625
0,1,0,25022,3.130859375,0.197265625,5,0,12,60,14,1162.38818359375,645.516723632812,0,1,faces,female,0,1,faces,A,female,VS,F,34,E09,138.775390625
0,1,0,25023,3.396484375,0.22265625,6,0,5,17,15,658.472106933594,848.580749511719,0,1,faces,male,0,1,faces,A,female,VS,F,34,E09,138.775390625
2,1,0,25024,3.66015625,0.103515625,7,0,4,7,16,592.735290527344,735.107543945312,0,1,objects,big,0,1,faces,A,female,VS,F,34,E09,138.775390625
0,1,0,25025,3.78515625,0.13671875,8,0,3,6,17,566.820007324219,682.969055175781,0,1,objects,big,0,1,faces,A,female,VS,F,34,E09,138.775390625
1,1,0,25035,0.26953125,0.29296875,1,1,1,1,1,597.307556152344,163.452255249023,0,1,objects,big,0,1,objects,A,small,VS,O,35,E09,142.974609375
1,1,0,25037,0.888671875,0.29296875,2,1,10,38,3,927.05126953125,230.969955444336,0,1,objects,small,0,1,objects,A,small,VS,O,35,E09,142.974609375
0,1,1,25040,1.7734375,0.15625,3,1,11,63,6,1116.43933105469,907.614379882812,0,1,faces,male,0,1,objects,A,small,VS,O,35,E09,142.974609375
0,1,0,25042,2.193359375,0.173828125,4,1,5,14,8,684.403991699219,500.562683105469,0,1,faces,male,0,1,objects,A,small,VS,O,35,E09,142.974609375
0,1,0,25043,2.408203125,0.111328125,5,0,3,4,9,571.979858398438,436.658813476562,0,1,faces,female,0,1,objects,A,small,VS,O,35,E09,142.974609375
2,1,0,25045,2.638671875,0.1875,6,0,1,1,11,586.077697753906,175.345031738281,0,1,objects,big,0,1,objects,A,small,VS,O,35,E09,142.974609375
0,1,0,25047,3.05078125,0.166015625,7,0,14,73,13,1387.92736816406,186.268371582031,0,1,faces,male,0,1,objects,A,small,VS,O,35,E09,142.974609375
2,1,0,25048,3.2734375,0.150390625,8,0,10,38,14,922.050659179688,250.71728515625,0,1,objects,small,0,1,objects,A,small,VS,O,35,E09,142.974609375
0,1,1,25049,3.466796875,0.166015625,9,0,4,11,15,702.135437011719,247.296829223633,0,1,objects,small,0,1,objects,A,small,VS,O,35,E09,142.974609375
0,1,0,25068,0.287109375,0.1953125,1,1,10,45,2,938.163330078125,910.969787597656,0,1,objects,small,0,0,objects,P,small,VS,O,36,E09,147.173828125
1,1,0,25069,0.53515625,0.341796875,2,1,13,60,3,1194.23120117188,625.153686523438,0,1,objects,big,0,0,objects,P,small,VS,O,36,E09,147.173828125
0,1,0,25071,1.25,0.134765625,3,1,14,73,5,1334.46374511719,147.507080078125,0,1,objects,big,0,0,objects,P,small,VS,O,36,E09,147.173828125
0,1,0,25072,1.427734375,0.134765625,4,1,11,47,6,1078.67736816406,209.241943359375,0,1,faces,male,0,0,objects,P,small,VS,O,36,E09,147.173828125
0,1,0,25073,1.625,0.169921875,5,0,2,10,7,671.143188476562,152.771469116211,0,1,faces,male,0,0,objects,P,small,VS,O,36,E09,147.173828125
0,1,0,25075,2.087890625,0.1328125,6,0,4,15,9,658.386474609375,665.224975585938,0,1,faces,male,0,0,objects,P,small,VS,O,36,E09,147.173828125
1,1,0,25076,2.29296875,0.162109375,7,0,9,42,10,944.133361816406,644.157470703125,0,1,objects,big,0,0,objects,P,small,VS,O,36,E09,147.173828125
2,1,1,25078,2.673828125,0.21484375,8,0,9,42,12,999.887573242188,661.164123535156,0,1,objects,big,0,0,objects,P,small,VS,O,36,E09,147.173828125
2,1,0,25080,3.080078125,0.2265625,9,0,13,60,14,1179.79260253906,658.705749511719,0,1,objects,big,0,0,objects,P,small,VS,O,36,E09,147.173828125
0,1,0,25082,3.501953125,0.205078125,10,0,5,17,16,674.440307617188,886.085510253906,0,1,faces,female,0,0,objects,P,small,VS,O,36,E09,147.173828125
0,1,1,25105,0.578125,0.115234375,1,1,2,17,3,639.417846679688,833.202026367188,0,1,faces,male,0,1,objects,A,small,EX,O,37,E09,151.373046875
0,1,0,25156,0.685546875,0.140625,1,1,2,23,1,720.805725097656,534.489074707031,0,1,faces,male,1,0,faces,P,female,VS,I,39,E09,159.771484375
0,1,0,25158,1.5546875,0.109375,2,1,6,33,3,838.504333496094,643.753967285156,1,0,NaN,NaN,1,0,faces,P,female,VS,I,39,E09,159.771484375
0,1,0,25165,3.72265625,0.33203125,3,1,9,58,10,1153.05725097656,414.491394042969,0,1,faces,male,1,0,faces,P,female,VS,I,39,E09,159.771484375
1,1,0,25186,0.3828125,0.103515625,1,1,8,40,2,980.179443359375,477.316558837891,0,1,objects,big,0,1,objects,A,big,EX,O,40,E09,163.970703125
0,1,1,25187,0.548828125,0.169921875,2,1,2,3,3,585.219970703125,363.133819580078,0,1,faces,female,0,1,objects,A,big,EX,O,40,E09,163.970703125
0,1,0,25189,0.98046875,0.244140625,3,1,1,2,5,583.936950683594,269.324066162109,0,1,objects,small,0,1,objects,A,big,EX,O,40,E09,163.970703125
0,1,0,25191,1.423828125,0.23828125,4,1,3,19,7,772.050231933594,176.47917175293,0,1,faces,male,0,1,objects,A,big,EX,O,40,E09,163.970703125
0,1,0,25194,2.1953125,0.119140625,5,0,13,57,10,1185.42846679688,383.420318603516,0,1,objects,big,0,1,objects,A,big,EX,O,40,E09,163.970703125
0,1,1,25195,2.359375,0.1875,6,0,15,77,11,1353.15148925781,576.348083496094,0,1,faces,female,0,1,objects,A,big,EX,O,40,E09,163.970703125
2,1,0,25197,2.697265625,0.185546875,7,0,8,40,13,1004.71209716797,481.385375976562,0,1,objects,big,0,1,objects,A,big,EX,O,40,E09,163.970703125
0,1,1,25199,3.109375,0.173828125,8,0,6,33,15,837.012817382812,651.427734375,0,1,faces,female,0,1,objects,A,big,EX,O,40,E09,163.970703125
0,1,0,25201,3.53125,0.154296875,9,0,5,26,17,735.491882324219,802.895812988281,0,1,faces,male,0,1,objects,A,big,EX,O,40,E09,163.970703125
0,1,0,25202,3.70703125,0.1875,10,0,4,25,18,758.80224609375,790.386291503906,0,1,faces,male,0,1,objects,A,big,EX,O,40,E09,163.970703125
0,1,1,25213,1.0078125,0.130859375,1,1,15,74,6,1354.42224121094,198.825057983398,0,1,faces,female,1,0,faces,P,female,VS,F,41,E09,168.169921875
0,1,0,25216,1.708984375,0.201171875,2,1,6,22,9,747.234680175781,456.700469970703,0,1,faces,male,1,0,faces,P,female,VS,F,41,E09,168.169921875
0,1,1,25220,2.326171875,0.248046875,3,1,14,69,13,1253.130859375,601.761169433594,0,1,faces,female,1,0,faces,P,female,VS,F,41,E09,168.169921875
0,1,0,25224,2.970703125,0.11328125,4,1,9,36,17,854.106018066406,954.506225585938,0,1,faces,female,1,0,faces,P,female,VS,F,41,E09,168.169921875
0,1,0,25225,3.138671875,0.205078125,5,0,2,8,18,584.241577148438,890.398559570312,0,1,objects,small,1,0,faces,P,female,VS,F,41,E09,168.169921875
0,1,0,25227,3.595703125,0.158203125,6,0,11,53,20,1066.39782714844,847.679870605469,0,1,faces,male,1,0,faces,P,female,VS,F,41,E09,168.169921875
0,0,0,25228,3.80078125,0.283203125,7,0,13,60,21,1138.7099609375,630.044311523438,1,0,NaN,NaN,1,0,faces,P,female,VS,F,41,E09,168.169921875
0,1,1,25249,1.82421875,0.251953125,1,1,13,74,8,1381.57983398438,226.862838745117,0,1,faces,female,1,0,faces,P,female,VS,I,42,E09,172.369140625
0,1,0,25253,2.509765625,0.2421875,2,1,11,57,12,1144.11865234375,300.890716552734,0,1,faces,male,1,0,faces,P,female,VS,I,42,E09,172.369140625
0,1,0,25255,3.064453125,0.115234375,3,1,5,22,14,710.876403808594,431.618255615234,1,0,NaN,NaN,1,0,faces,P,female,VS,I,42,E09,172.369140625
0,1,1,25257,3.49609375,0.228515625,4,1,1,1,16,525.1513671875,172.031936645508,0,1,objects,big,1,0,faces,P,female,VS,I,42,E09,172.369140625
0,1,0,25281,0.35546875,0.15234375,1,1,1,12,2,617.834838867188,386.338531494141,0,1,faces,female,0,0,faces,P,female,VS,F,43,E09,176.568359375
0,1,0,25283,0.75390625,0.216796875,2,1,3,16,4,622.653686523438,785.680786132812,0,1,objects,big,0,0,faces,P,female,VS,F,43,E09,176.568359375
0,1,0,25284,1.015625,0.248046875,3,1,6,33,5,844.902282714844,668.490478515625,0,1,faces,female,0,0,faces,P,female,VS,F,43,E09,176.568359375
0,1,1,25286,1.474609375,0.109375,4,1,5,27,7,728.752868652344,980.375549316406,0,1,faces,male,0,0,faces,P,female,VS,F,43,E09,176.568359375
0,1,0,25289,1.857421875,0.1875,5,0,14,71,10,1261.91516113281,826.737487792969,0,1,objects,small,0,0,faces,P,female,VS,F,43,E09,176.568359375
0,1,1,25290,2.083984375,0.14453125,6,0,10,60,11,1155.78466796875,680.539611816406,0,1,faces,male,0,0,faces,P,female,VS,F,43,E09,176.568359375
0,1,0,25293,2.705078125,0.197265625,7,0,13,67,14,1266.4580078125,421.139190673828,0,1,objects,big,0,0,faces,P,female,VS,F,43,E09,176.568359375
0,1,0,25294,2.96484375,0.25,8,0,15,74,15,1360.93823242188,238.881103515625,0,1,faces,female,0,0,faces,P,female,VS,F,43,E09,176.568359375
0,1,0,25296,3.34765625,0.109375,9,0,12,66,17,1250.51623535156,309.275665283203,0,1,faces,female,0,0,faces,P,female,VS,F,43,E09,176.568359375
0,1,0,25297,3.49609375,0.27734375,10,0,9,56,18,1156.37451171875,243.466278076172,0,1,faces,female,0,0,faces,P,female,VS,F,43,E09,176.568359375
0,1,0,25298,3.810546875,0.228515625,11,0,8,47,19,1017.05029296875,242.191513061523,0,1,faces,male,0,0,faces,P,female,VS,F,43,E09,176.568359375
1,1,0,25315,0.546875,0.181640625,1,1,2,6,2,535.63330078125,676.176940917969,1,0,NaN,NaN,1,1,objects,P,big,VS,O,44,E09,180.767578125
0,1,0,25317,2.53515625,0.1640625,2,1,5,31,4,883.573181152344,481.575012207031,0,1,faces,female,1,1,objects,P,big,VS,O,44,E09,180.767578125
0,1,0,25319,3.056640625,0.13671875,3,1,14,75,6,1366.79956054688,361.331115722656,0,1,faces,male,1,1,objects,P,big,VS,O,44,E09,180.767578125
2,0,1,25321,3.462890625,0.26953125,4,1,2,6,8,566.68408203125,647.552429199219,1,0,NaN,NaN,1,1,objects,P,big,VS,O,44,E09,180.767578125
0,1,0,25332,0.4140625,0.2265625,1,1,2,23,1,732.943786621094,521.121154785156,0,1,faces,male,0,1,faces,A,male,EX,F,45,E09,184.966796875
0,1,0,25337,2.646484375,0.181640625,2,1,11,60,6,1156.47521972656,629.151184082031,0,1,objects,small,0,1,faces,A,male,EX,F,45,E09,184.966796875
0,1,0,25340,3.466796875,0.20703125,3,1,14,73,9,1375.63537597656,140.274002075195,0,1,objects,big,0,1,faces,A,male,EX,F,45,E09,184.966796875
0,1,0,25361,0.501953125,0.19921875,1,1,1,1,3,570.95263671875,125.120559692383,0,1,faces,male,1,1,objects,P,big,VS,O,46,E09,189.166015625
1,1,0,25363,0.9375,0.150390625,2,1,9,37,5,991.585632324219,129.251129150391,1,0,NaN,NaN,1,1,objects,P,big,VS,O,46,E09,189.166015625
2,0,0,25367,2.900390625,0.22265625,3,1,9,37,9,952.477661132812,167.183746337891,1,0,NaN,NaN,1,1,objects,P,big,VS,O,46,E09,189.166015625
1,1,1,25396,2.494140625,0.11328125,1,1,5,31,1,811.908752441406,429.778015136719,0,1,objects,small,0,1,faces,A,male,EX,I,47,E09,193.365234375
0,1,0,25399,3.083984375,0.275390625,2,1,8,47,4,1019.17266845703,281.576934814453,0,1,objects,big,0,1,faces,A,male,EX,I,47,E09,193.365234375
2,1,0,25402,3.650390625,0.193359375,3,1,5,31,7,828.812133789062,453.9677734375,0,1,objects,small,0,1,faces,A,male,EX,I,47,E09,193.365234375
0,1,0,25427,0.46484375,0.1796875,1,1,7,37,2,965.778503417969,140.936508178711,0,1,objects,big,1,0,faces,P,male,VS,I,48,E09,197.564453125
0,1,1,25428,0.74609375,0.1484375,2,1,1,12,3,663.889587402344,331.95703125,0,1,faces,male,1,0,faces,P,male,VS,I,48,E09,197.564453125
0,1,0,25430,1.888671875,0.1484375,3,1,4,24,5,794.998840332031,671.271606445312,0,1,faces,male,1,0,faces,P,male,VS,I,48,E09,197.564453125
0,1,1,25431,2.095703125,0.28515625,4,1,2,14,6,625.196594238281,552.351684570312,0,1,faces,female,1,0,faces,P,male,VS,I,48,E09,197.564453125
0,1,1,25433,2.599609375,0.185546875,5,0,12,60,8,1147.96765136719,677.933044433594,0,1,faces,female,1,0,faces,P,male,VS,I,48,E09,197.564453125
0,0,0,25436,3.1875,0.248046875,6,0,14,77,11,1400.56359863281,496.935150146484,1,0,NaN,NaN,1,0,faces,P,male,VS,I,48,E09,197.564453125
0,0,0,25438,3.59375,0.263671875,7,0,15,80,13,1385.57958984375,797.781127929688,0,1,faces,male,1,0,faces,P,male,VS,I,48,E09,197.564453125
0,1,0,25457,0.2890625,0.134765625,1,1,6,24,1,722.986755371094,683.231811523438,0,1,faces,male,0,0,faces,P,male,VS,F,49,E09,201.763671875
0,1,0,25461,1.03125,0.173828125,2,1,12,64,5,1296.98840332031,172.891708374023,0,1,faces,male,0,0,faces,P,male,VS,F,49,E09,201.763671875
0,1,0,25463,1.431640625,0.208984375,3,1,14,75,7,1405.86462402344,388.051361083984,0,1,faces,male,0,0,faces,P,male,VS,F,49,E09,201.763671875
0,1,0,25464,1.697265625,0.3125,4,1,9,48,8,1100.08239746094,371.081970214844,0,1,faces,female,0,0,faces,P,male,VS,F,49,E09,201.763671875
0,1,0,25467,2.5546875,0.30078125,5,0,3,13,11,686.197875976562,477.399566650391,0,1,faces,male,0,0,faces,P,male,VS,F,49,E09,201.763671875
0,1,0,25469,3.08984375,0.109375,6,0,5,18,13,698.559143066406,971.813781738281,0,1,objects,small,0,0,faces,P,male,VS,F,49,E09,201.763671875
0,1,0,25470,3.228515625,0.220703125,7,0,4,17,14,676.070983886719,876.6416015625,0,1,faces,female,0,0,faces,P,male,VS,F,49,E09,201.763671875
0,1,1,25471,3.533203125,0.158203125,8,0,13,71,15,1288.83898925781,864.127807617188,0,1,faces,female,0,0,faces,P,male,VS,F,49,E09,201.763671875
0,1,0,25542,0.912109375,0.23046875,1,1,2,2,5,550.650512695312,273.317657470703,0,1,objects,small,0,1,objects,A,big,VS,O,59,E09,243.755859375
0,1,1,25544,1.39453125,0.21484375,2,1,4,7,7,586.70654296875,718.882019042969,0,1,faces,male,0,1,objects,A,big,VS,O,59,E09,243.755859375
0,1,0,25547,1.931640625,0.29296875,3,1,6,14,10,648.495910644531,547.75634765625,0,1,faces,male,0,1,objects,A,big,VS,O,59,E09,243.755859375
0,1,0,25552,3.228515625,0.11328125,4,1,7,18,15,654.267028808594,978.713439941406,0,1,objects,big,0,1,objects,A,big,VS,O,59,E09,243.755859375
0,1,0,25554,3.646484375,0.138671875,5,0,5,12,17,655.4609375,377.667358398438,0,1,faces,female,0,1,objects,A,big,VS,O,59,E09,243.755859375
1,1,0,25576,0.5234375,0.146484375,1,1,12,49,2,1036.92248535156,487.175415039062,0,1,faces,female,0,0,faces,A,female,VS,I,60,E09,247.955078125
2,1,1,25581,1.52734375,0.203125,2,1,12,49,7,1068.96618652344,464.069641113281,0,1,faces,female,0,0,faces,A,female,VS,I,60,E09,247.955078125
0,1,1,25584,2.6875,0.20703125,3,1,10,39,10,1008.58984375,315.821197509766,0,1,faces,female,0,0,faces,A,female,VS,I,60,E09,247.955078125
3,1,0,25588,3.732421875,0.158203125,4,1,12,49,14,1106.80163574219,472.986541748047,0,1,faces,female,0,0,faces,A,female,VS,I,60,E09,247.955078125
0,1,0,25613,1.916015625,0.193359375,1,1,14,75,12,1373.80590820312,335.988311767578,0,1,objects,small,0,1,faces,A,female,VS,F,61,E09,252.154296875
0,1,0,25614,2.15234375,0.126953125,2,1,13,74,13,1355.5107421875,203.638732910156,0,1,faces,female,0,1,faces,A,female,VS,F,61,E09,252.154296875
1,1,0,25615,2.30859375,0.21484375,3,1,12,73,14,1311.201171875,155.820999145508,0,1,faces,female,0,1,faces,A,female,VS,F,61,E09,252.154296875
0,1,0,25616,2.544921875,0.36328125,4,1,10,64,15,1285.91418457031,147.351715087891,0,1,faces,female,0,1,faces,A,female,VS,F,61,E09,252.154296875
2,1,0,25617,2.9375,0.16796875,5,0,12,73,16,1374.95349121094,148.597122192383,0,1,faces,female,0,1,faces,A,female,VS,F,61,E09,252.154296875
0,1,0,25619,3.40625,0.103515625,6,0,1,3,18,593.109985351562,372.729400634766,0,1,objects,big,0,1,faces,A,female,VS,F,61,E09,252.154296875
0,1,0,25620,3.541015625,0.150390625,7,0,2,4,19,544.783264160156,466.563018798828,0,1,faces,male,0,1,faces,A,female,VS,F,61,E09,252.154296875
0,1,0,25622,3.9140625,0.150390625,8,0,8,49,21,1066.64416503906,443.416900634766,0,1,faces,male,0,1,faces,A,female,VS,F,61,E09,252.154296875
0,1,0,25649,1.6484375,0.115234375,1,1,3,14,7,615.460876464844,584.824645996094,0,1,faces,male,0,0,faces,A,male,EX,I,62,E09,256.353515625
0,1,0,25652,2.17578125,0.1953125,2,1,6,29,10,884.091003417969,287.917602539062,0,1,faces,female,0,0,faces,A,male,EX,I,62,E09,256.353515625
1,1,1,25665,2.353515625,0.123046875,1,1,6,29,4,831.079223632812,224.261535644531,0,1,faces,female,0,1,objects,A,big,EX,O,63,E09,260.552734375
0,1,1,25667,2.748046875,0.291015625,2,1,4,20,6,734.574951171875,256.344604492188,0,1,objects,big,0,1,objects,A,big,EX,O,63,E09,260.552734375
2,1,1,25669,3.3984375,0.283203125,3,1,6,29,8,821.721252441406,245.827392578125,0,1,faces,female,0,1,objects,A,big,EX,O,63,E09,260.552734375
0,1,0,25710,0.2578125,0.115234375,1,1,4,23,2,751.601745605469,575.293273925781,0,1,objects,big,1,1,faces,P,male,VS,F,64,E09,264.751953125
0,1,1,25719,1.546875,0.142578125,2,1,12,63,11,1153.72045898438,954.167297363281,0,1,faces,female,1,1,faces,P,male,VS,F,64,E09,264.751953125
0,1,0,25726,2.619140625,0.134765625,3,1,5,28,18,890.431213378906,159.458038330078,0,1,objects,big,1,1,faces,P,male,VS,F,64,E09,264.751953125
0,1,0,25727,2.818359375,0.1328125,4,1,13,64,19,1264.55969238281,153.674987792969,0,1,faces,female,1,1,faces,P,male,VS,F,64,E09,264.751953125
0,1,0,25728,2.986328125,0.19140625,5,0,11,55,20,1174.38916015625,127.884315490723,0,1,faces,female,1,1,faces,P,male,VS,F,64,E09,264.751953125
0,0,0,25729,3.205078125,1.318359375,6,0,8,46,21,1080.45751953125,147.368362426758,1,0,NaN,NaN,1,1,faces,P,male,VS,F,64,E09,264.751953125
0,1,0,25745,0.275390625,0.28125,1,1,1,10,1,684.355834960938,161.516418457031,0,1,faces,male,1,1,objects,P,small,VS,O,65,E09,268.951171875
0,1,0,25746,0.62890625,0.16796875,2,1,8,37,2,978.075500488281,163.777191162109,0,1,faces,female,1,1,objects,P,small,VS,O,65,E09,268.951171875
0,1,0,25747,0.869140625,0.46875,3,1,12,65,3,1270.54370117188,259.665893554688,0,1,objects,big,1,1,objects,P,small,VS,O,65,E09,268.951171875
0,1,0,25750,1.9921875,0.255859375,4,1,11,59,6,1177.92651367188,578.992065429688,0,1,faces,male,1,1,objects,P,small,VS,O,65,E09,268.951171875
0,1,0,25752,2.552734375,0.2421875,5,0,6,27,8,807.214538574219,900.035949707031,0,1,objects,small,1,1,objects,P,small,VS,O,65,E09,268.951171875
1,1,0,25753,2.869140625,0.123046875,6,0,13,71,9,1209.58996582031,861.417602539062,1,0,NaN,NaN,1,1,objects,P,small,VS,O,65,E09,268.951171875
2,1,1,25757,3.599609375,0.138671875,7,0,13,71,13,1276.06237792969,849.812805175781,1,0,NaN,NaN,1,1,objects,P,small,VS,O,65,E09,268.951171875
1,1,0,25773,0.4921875,0.189453125,1,1,6,37,2,971.184936523438,175.790435791016,0,1,objects,small,0,1,objects,A,small,EX,O,66,E09,273.150390625
0,1,0,25774,1.77734375,0.189453125,2,1,7,49,3,1077.53259277344,456.384796142578,0,1,faces,male,0,1,objects,A,small,EX,O,66,E09,273.150390625
0,1,0,25776,2.29296875,0.228515625,3,1,2,13,5,671.065246582031,465.170379638672,0,1,faces,male,0,1,objects,A,small,EX,O,66,E09,273.150390625
2,1,0,25777,3.455078125,0.537109375,4,1,6,37,6,972.064880371094,166.212707519531,0,1,objects,small,0,1,objects,A,small,EX,O,66,E09,273.150390625
0,1,0,25811,0.267578125,0.3359375,1,1,1,2,1,559.0498046875,260.234069824219,0,1,faces,female,0,0,faces,P,male,VS,F,67,E09,277.349609375
0,1,1,25812,0.71875,0.12890625,2,1,11,64,2,1254.06811523438,153.994522094727,0,1,faces,female,0,0,faces,P,male,VS,F,67,E09,277.349609375
1,1,0,25814,1.2109375,0.244140625,3,1,12,66,4,1267.19079589844,359.669494628906,0,1,faces,male,0,0,faces,P,male,VS,F,67,E09,277.349609375
0,1,0,25815,1.5625,0.17578125,4,1,3,23,5,750.120910644531,577.626770019531,0,1,objects,small,0,0,faces,P,male,VS,F,67,E09,277.349609375
2,1,1,25816,1.81640625,0.1171875,5,0,12,66,6,1260.23278808594,382.228851318359,0,1,faces,male,0,0,faces,P,male,VS,F,67,E09,277.349609375
0,1,1,25818,2.310546875,0.2109375,6,0,7,50,8,1082.11315917969,589.240966796875,0,1,objects,big,0,0,faces,P,male,VS,F,67,E09,277.349609375
0,1,0,25820,2.68359375,0.26171875,7,0,5,42,10,965.304443359375,684.434265136719,0,1,faces,male,0,0,faces,P,male,VS,F,67,E09,277.349609375
0,1,0,25821,2.986328125,0.15625,8,0,4,25,11,779.809509277344,785.509155273438,0,1,faces,female,0,0,faces,P,male,VS,F,67,E09,277.349609375
0,1,1,25857,1.4453125,0.140625,1,1,5,24,5,719.077758789062,689.442687988281,0,1,faces,male,1,1,faces,P,female,VS,I,68,E09,281.548828125
0,1,0,25861,2.076171875,0.2421875,2,1,15,67,9,1281.01110839844,444.506500244141,0,1,faces,male,1,1,faces,P,female,VS,I,68,E09,281.548828125
0,1,0,25862,2.376953125,0.1953125,3,1,10,40,10,952.095642089844,477.943603515625,0,1,faces,female,1,1,faces,P,female,VS,I,68,E09,281.548828125
0,0,1,25864,2.939453125,0.22265625,4,1,3,20,12,779.233459472656,270.509185791016,1,0,NaN,NaN,1,1,faces,P,female,VS,I,68,E09,281.548828125
1,1,0,25885,0.501953125,0.212890625,1,1,3,11,4,645.28466796875,256.931854248047,0,1,faces,male,0,1,faces,A,male,VS,I,69,E09,285.748046875
0,1,0,25887,0.998046875,0.115234375,2,1,1,1,6,553.407653808594,170.499862670898,0,1,faces,male,0,1,faces,A,male,VS,I,69,E09,285.748046875
2,1,1,25888,1.162109375,0.291015625,3,1,3,11,7,691.374816894531,277.258819580078,0,1,faces,male,0,1,faces,A,male,VS,I,69,E09,285.748046875
0,1,0,25892,2.2109375,0.23828125,4,1,13,59,11,1191.53918457031,558.284118652344,0,1,objects,big,0,1,faces,A,male,VS,I,69,E09,285.748046875
0,1,1,25893,2.5546875,0.16015625,5,0,10,33,12,883.006652832031,608.430419921875,0,1,objects,small,0,1,faces,A,male,VS,I,69,E09,285.748046875
1,1,1,25895,3.134765625,0.20703125,6,0,7,26,14,747.847045898438,835.747192382812,0,1,faces,female,0,1,faces,A,male,VS,I,69,E09,285.748046875
2,1,1,25898,3.70703125,0.12890625,7,0,7,26,17,802.082458496094,811.593688964844,0,1,faces,female,0,1,faces,A,male,VS,I,69,E09,285.748046875
1,0,1,25920,0.673828125,0.23046875,1,1,9,49,3,1059.72766113281,450.943084716797,1,0,NaN,NaN,1,1,faces,P,male,VS,I,70,E09,289.947265625
0,0,0,25926,2.1953125,0.140625,2,1,14,79,9,1376.33374023438,731.4609375,0,1,faces,female,1,1,faces,P,male,VS,I,70,E09,289.947265625
0,0,0,25927,2.390625,0.109375,3,1,10,60,10,1208.38195800781,629.881408691406,0,1,objects,small,1,1,faces,P,male,VS,I,70,E09,289.947265625
0,0,0,25928,2.6640625,0.162109375,4,1,13,74,11,1401.71472167969,251.28190612793,0,1,faces,male,1,1,faces,P,male,VS,I,70,E09,289.947265625
0,0,1,25929,2.931640625,0.1328125,5,0,1,11,12,659.164489746094,219.506820678711,0,1,objects,big,1,1,faces,P,male,VS,I,70,E09,289.947265625
2,0,1,25932,3.572265625,0.255859375,6,0,9,49,15,1037.69079589844,466.943359375,1,0,NaN,NaN,1,1,faces,P,male,VS,I,70,E09,289.947265625
0,1,0,25946,0.390625,0.193359375,1,1,1,3,3,557.066040039062,360.373260498047,0,1,faces,female,0,1,faces,A,male,EX,F,71,E09,294.146484375
0,1,1,25953,3.11328125,0.12890625,2,1,8,33,10,845.313354492188,690.086303710938,0,1,objects,small,0,1,faces,A,male,EX,F,71,E09,294.146484375
0,1,0,25955,3.373046875,0.287109375,3,1,9,50,12,1062.40478515625,572.361145019531,0,1,faces,female,0,1,faces,A,male,EX,F,71,E09,294.146484375
0,1,1,25990,0.828125,0.125,1,1,2,14,5,617.135620117188,588.440002441406,0,1,objects,small,1,1,faces,P,male,VS,I,72,E09,298.345703125
1,0,0,25994,1.619140625,0.71875,2,1,4,23,9,740.091430664062,585.490295410156,1,0,NaN,NaN,1,1,faces,P,male,VS,I,72,E09,298.345703125
2,0,1,25996,2.822265625,0.267578125,3,1,4,23,11,738.297790527344,568.298278808594,1,0,NaN,NaN,1,1,faces,P,male,VS,I,72,E09,298.345703125
0,0,0,25999,3.65625,0.15625,4,1,10,58,14,1132.55004882812,436.918853759766,0,1,objects,small,1,1,faces,P,male,VS,I,72,E09,298.345703125
0,0,0,26000,3.859375,0.126953125,5,0,8,49,15,1076.298828125,453.125915527344,0,1,faces,female,1,1,faces,P,male,VS,I,72,E09,298.345703125
0,1,0,26356,0.326171875,0.107421875,1,1,3,14,1,652.479675292969,573.092224121094,0,1,faces,female,1,1,objects,P,small,VS,O,73,E09,302.544921875
0,1,0,26360,1.078125,0.11328125,2,1,7,34,5,843.933166503906,764.186340332031,0,1,faces,female,1,1,objects,P,small,VS,O,73,E09,302.544921875
0,1,1,26362,1.390625,0.119140625,3,1,1,3,7,556.917175292969,381.540069580078,0,1,faces,male,1,1,objects,P,small,VS,O,73,E09,302.544921875
0,0,0,26363,1.65625,0.37109375,4,1,12,57,8,1210.40466308594,325.220794677734,1,0,NaN,NaN,1,1,objects,P,small,VS,O,73,E09,302.544921875
0,1,1,26391,1.044921875,0.142578125,1,1,3,11,4,692.258178710938,243.480819702148,0,1,objects,small,0,1,objects,A,small,VS,O,74,E09,306.744140625
1,1,0,26393,1.3671875,0.208984375,2,1,6,31,6,902.042114257812,462.122406005859,0,1,faces,male,0,1,objects,A,small,VS,O,74,E09,306.744140625
0,1,0,26396,2.076171875,0.17578125,3,1,13,69,9,1232.09204101562,608.507873535156,0,1,faces,female,0,1,objects,A,small,VS,O,74,E09,306.744140625
0,1,0,26401,3.173828125,0.1640625,4,1,11,45,14,1002.38000488281,959.984558105469,0,1,faces,male,0,1,objects,A,small,VS,O,74,E09,306.744140625
0,1,0,26402,3.408203125,0.1484375,5,0,10,43,15,976.060729980469,723.028869628906,0,1,faces,male,0,1,objects,A,small,VS,O,74,E09,306.744140625
0,1,0,26403,3.587890625,0.185546875,6,0,7,33,16,908.905029296875,659.302124023438,0,1,objects,big,0,1,objects,A,small,VS,O,74,E09,306.744140625
2,1,0,26404,3.818359375,0.2265625,7,0,6,31,17,901.255249023438,484.687713623047,0,1,faces,male,0,1,objects,A,small,VS,O,74,E09,306.744140625
0,1,0,26437,0.95703125,0.166015625,1,1,1,1,5,599.836608886719,143.845245361328,0,1,faces,male,0,1,objects,A,big,VS,O,75,E09,310.943359375
0,1,0,26439,1.466796875,0.185546875,2,1,13,73,7,1361.82751464844,136.102294921875,0,1,faces,female,0,1,objects,A,big,VS,O,75,E09,310.943359375
0,1,0,26441,1.8671875,0.130859375,3,1,8,37,9,1009.45404052734,156.418838500977,0,1,objects,small,0,1,objects,A,big,VS,O,75,E09,310.943359375
0,1,1,26447,3.07421875,0.1015625,4,1,9,43,15,920.050231933594,763.7060546875,0,1,objects,small,0,1,objects,A,big,VS,O,75,E09,310.943359375
0,1,0,26482,0.041015625,0.185546875,1,1,10,42,1,996.961669921875,626.733459472656,0,1,objects,big,1,0,faces,P,female,VS,F,76,E09,315.142578125
0,1,1,26489,1.833984375,0.205078125,2,1,5,20,8,799.817687988281,264.733306884766,0,1,faces,female,1,0,faces,P,female,VS,F,76,E09,315.142578125
0,1,0,26492,2.46875,0.162109375,3,1,2,5,11,574.527770996094,573.533386230469,0,1,faces,male,1,0,faces,P,female,VS,F,76,E09,315.142578125
0,1,0,26495,3.234375,0.15234375,4,1,9,34,14,900.53515625,744.424743652344,1,0,NaN,NaN,1,0,faces,P,female,VS,F,76,E09,315.142578125
0,1,0,26496,3.41796875,0.203125,5,0,8,33,15,889.427124023438,671.74609375,0,1,faces,female,1,0,faces,P,female,VS,F,76,E09,315.142578125
1,1,0,26529,0.447265625,0.138671875,1,1,5,31,3,838.081726074219,407.839263916016,0,1,faces,female,0,1,faces,A,female,VS,I,77,E09,319.341796875
0,1,1,26530,0.626953125,0.212890625,2,1,3,13,4,681.606384277344,435.961547851562,0,1,faces,male,0,1,faces,A,female,VS,I,77,E09,319.341796875
0,1,0,26532,1.103515625,0.234375,3,1,2,6,6,553.372131347656,638.981811523438,0,1,faces,female,0,1,faces,A,female,VS,I,77,E09,319.341796875
2,1,0,26535,1.61328125,0.369140625,4,1,5,31,9,905.153991699219,454.268310546875,0,1,faces,female,0,1,faces,A,female,VS,I,77,E09,319.341796875
0,1,0,26536,2.060546875,0.201171875,5,0,14,76,10,1403.02197265625,416.14892578125,0,1,faces,female,0,1,faces,A,female,VS,I,77,E09,319.341796875
0,1,1,26541,2.75,0.111328125,6,0,6,33,15,900.3173828125,682.490661621094,0,1,faces,male,0,1,faces,A,female,VS,I,77,E09,319.341796875
0,1,0,26544,3.3359375,0.123046875,7,0,4,17,18,650.858764648438,885.988098144531,0,1,faces,male,0,1,faces,A,female,VS,I,77,E09,319.341796875
1,1,0,26572,0.31640625,0.205078125,1,1,3,10,1,703.648498535156,172.376525878906,0,1,faces,female,0,1,faces,A,female,EX,F,78,E09,323.541015625
0,1,0,26573,0.556640625,0.220703125,2,1,1,1,2,609.093078613281,151.279479980469,0,1,faces,female,0,1,faces,A,female,EX,F,78,E09,323.541015625
2,1,0,26574,0.806640625,0.470703125,3,1,3,10,3,701.642822265625,154.375762939453,0,1,faces,female,0,1,faces,A,female,EX,F,78,E09,323.541015625
0,1,0,26575,1.35546875,0.263671875,4,1,7,38,4,992.807983398438,259.107818603516,0,1,objects,big,0,1,faces,A,female,EX,F,78,E09,323.541015625
0,1,0,26576,1.65625,0.458984375,5,0,8,48,5,1095.21557617188,340.767211914062,0,1,faces,male,0,1,faces,A,female,EX,F,78,E09,323.541015625
0,1,0,26578,2.525390625,0.638671875,6,0,14,68,7,1309.69653320312,540.549255371094,0,1,faces,male,0,1,faces,A,female,EX,F,78,E09,323.541015625
0,1,0,26579,3.2265625,0.328125,7,0,10,50,8,1109.69982910156,493.067321777344,0,1,objects,small,0,1,faces,A,female,EX,F,78,E09,323.541015625
0,1,0,26580,3.595703125,0.15625,8,0,13,60,9,1156.83032226562,613.376708984375,0,1,faces,female,0,1,faces,A,female,EX,F,78,E09,323.541015625
0,1,0,26594,0.236328125,0.126953125,1,1,7,29,1,817.389831542969,284.148040771484,0,1,faces,male,1,1,objects,P,small,VS,O,79,E09,327.740234375
0,1,1,26595,0.400390625,0.193359375,2,1,6,28,2,818.066772460938,165.776107788086,0,1,faces,male,1,1,objects,P,small,VS,O,79,E09,327.740234375
0,1,1,26597,0.87109375,0.109375,3,1,14,66,4,1223.37280273438,304.345275878906,0,1,objects,big,1,1,objects,P,small,VS,O,79,E09,327.740234375
0,1,0,26600,1.4296875,0.1875,4,1,15,79,7,1319.20886230469,714.352600097656,0,1,faces,female,1,1,objects,P,small,VS,O,79,E09,327.740234375
0,1,1,26603,2.44921875,0.138671875,5,0,5,25,10,759.203186035156,788.435791015625,1,0,NaN,NaN,1,1,objects,P,small,VS,O,79,E09,327.740234375
1,1,1,26626,0.609375,0.171875,1,1,6,21,3,805.809020996094,378.455596923828,1,0,NaN,NaN,1,1,objects,P,big,VS,O,80,E09,331.939453125
2,0,1,26632,2.775390625,0.265625,2,1,6,21,9,794.205993652344,354.811737060547,1,0,NaN,NaN,1,1,objects,P,big,VS,O,80,E09,331.939453125
3,0,1,26638,3.923828125,0.171875,3,1,6,21,15,787.707275390625,342.914031982422,1,0,NaN,NaN,1,1,objects,P,big,VS,O,80,E09,331.939453125
0,1,1,26696,2.0078125,0.109375,1,1,4,23,9,808.864379882812,545.964965820312,0,1,faces,male,0,0,faces,P,female,VS,F,82,E09,340.337890625
0,1,1,26698,2.380859375,0.130859375,2,1,7,46,11,1043.15808105469,165.947448730469,0,1,objects,small,0,0,faces,P,female,VS,F,82,E09,340.337890625
0,1,0,26700,2.77734375,0.140625,3,1,12,57,13,1190.89404296875,335.906066894531,0,1,faces,male,0,0,faces,P,female,VS,F,82,E09,340.337890625
0,1,1,26701,3.013671875,0.171875,4,1,3,20,14,793.717590332031,264.009246826172,0,1,faces,male,0,0,faces,P,female,VS,F,82,E09,340.337890625
0,1,0,26717,0.263671875,0.12890625,1,1,8,31,1,906.463073730469,447.598205566406,0,1,objects,small,0,1,faces,A,male,VS,I,83,E09,344.537109375
0,1,0,26719,0.693359375,0.185546875,2,1,5,19,3,769.157897949219,187.31071472168,0,1,faces,female,0,1,faces,A,male,VS,I,83,E09,344.537109375
0,1,0,26720,0.912109375,0.271484375,3,1,7,28,4,830.075317382812,158.466384887695,0,1,faces,female,0,1,faces,A,male,VS,I,83,E09,344.537109375
0,1,1,26726,2.361328125,0.212890625,4,1,3,13,10,695.520080566406,479.046539306641,0,1,faces,female,0,1,faces,A,male,VS,I,83,E09,344.537109375
0,1,0,26728,2.884765625,0.138671875,5,0,12,54,12,1036.06665039062,906.7294921875,0,1,faces,male,0,1,faces,A,male,VS,I,83,E09,344.537109375
0,1,0,26729,3.08203125,0.177734375,6,0,4,18,13,695.583435058594,970.461791992188,0,1,faces,female,0,1,faces,A,male,VS,I,83,E09,344.537109375
0,1,0,26733,3.806640625,0.20703125,7,0,11,53,17,1109.44213867188,791.32177734375,0,1,objects,big,0,1,faces,A,male,VS,I,83,E09,344.537109375
0,1,0,26745,0.265625,0.158203125,1,1,2,22,1,790.326599121094,430.682861328125,0,1,objects,big,0,1,objects,A,small,EX,O,84,E09,348.736328125
0,1,1,26746,0.478515625,0.1640625,2,1,1,7,2,584.942443847656,699.588928222656,0,1,faces,female,0,1,objects,A,small,EX,O,84,E09,348.736328125
0,1,0,26748,0.994140625,0.1328125,3,1,12,67,4,1243.25415039062,481.122467041016,0,1,objects,small,0,1,objects,A,small,EX,O,84,E09,348.736328125
0,1,1,26749,1.16015625,0.1015625,4,1,11,58,5,1183.62927246094,442.187316894531,0,1,faces,male,0,1,objects,A,small,EX,O,84,E09,348.736328125
0,1,1,26754,2.42578125,0.138671875,5,0,6,42,10,990.560607910156,656.096252441406,0,1,faces,female,0,1,objects,A,small,EX,O,84,E09,348.736328125
0,1,0,26757,3.134765625,0.181640625,6,0,9,54,13,1099.00427246094,948.458923339844,0,1,objects,big,0,1,objects,A,small,EX,O,84,E09,348.736328125
0,1,1,26758,3.35546875,0.19921875,7,0,5,36,14,871.427490234375,958.177001953125,0,1,faces,female,0,1,objects,A,small,EX,O,84,E09,348.736328125
0,1,0,26776,0.59375,0.162109375,1,1,1,2,4,577.317260742188,241.876052856445,0,1,faces,female,1,1,faces,P,female,VS,I,85,E09,352.935546875
0,1,0,26777,0.828125,0.1484375,2,1,7,28,5,860.735168457031,183.127883911133,0,1,faces,female,1,1,faces,P,female,VS,I,85,E09,352.935546875
0,1,0,26779,1.296875,0.150390625,3,1,4,20,7,808.246215820312,264.009582519531,0,1,objects,small,1,1,faces,P,female,VS,I,85,E09,352.935546875
1,0,0,26782,1.98046875,0.546875,4,1,2,12,10,709.186767578125,350.181304931641,1,0,NaN,NaN,1,1,faces,P,female,VS,I,85,E09,352.935546875
2,0,0,26784,3.3828125,0.94921875,5,0,2,12,12,703.995544433594,358.524505615234,1,0,NaN,NaN,1,1,faces,P,female,VS,I,85,E09,352.935546875
0,1,0,26799,0.833984375,0.275390625,1,1,3,18,4,683.717224121094,964.609924316406,0,1,faces,male,1,0,faces,P,female,VS,I,86,E09,357.134765625
0,1,0,26800,1.150390625,0.318359375,2,1,6,36,5,890.387145996094,957.677429199219,0,1,faces,female,1,0,faces,P,female,VS,I,86,E09,357.134765625
0,1,0,26801,1.50390625,0.25390625,3,1,5,26,6,804.607421875,845.513610839844,0,1,faces,male,1,0,faces,P,female,VS,I,86,E09,357.134765625
0,1,0,26804,2.251953125,0.171875,4,1,14,78,9,1390.99499511719,622.487365722656,1,0,NaN,NaN,1,0,faces,P,female,VS,I,86,E09,357.134765625
1,1,0,26819,0.271484375,0.119140625,1,1,10,49,2,1036.40100097656,447.951599121094,0,1,faces,male,0,1,faces,A,male,EX,F,87,E09,361.333984375
0,1,0,26820,0.4765625,0.1171875,2,1,3,11,3,687.033081054688,208.411361694336,0,1,faces,female,0,1,faces,A,male,EX,F,87,E09,361.333984375
0,1,0,26821,0.6328125,0.19140625,3,1,2,10,4,625.627746582031,145.649917602539,0,1,faces,female,0,1,faces,A,male,EX,F,87,E09,361.333984375
2,1,0,26824,1.59375,0.1328125,4,1,10,49,7,1101.67333984375,473.864135742188,0,1,faces,male,0,1,faces,A,male,EX,F,87,E09,361.333984375
0,1,0,26839,0.49609375,0.14453125,1,1,6,38,2,1003.61199951172,258.764709472656,0,1,faces,male,0,1,objects,A,big,EX,O,88,E09,365.533203125
0,1,0,26843,2.60546875,0.146484375,2,1,13,73,6,1401.29553222656,165.099899291992,0,1,objects,big,0,1,objects,A,big,EX,O,88,E09,365.533203125
0,0,0,26866,0.974609375,0.2734375,1,1,8,50,3,1098.97680664062,531.392517089844,1,0,NaN,NaN,1,1,objects,P,big,VS,O,89,E09,369.732421875
0,1,1,26889,0.501953125,0.1328125,1,1,4,20,3,742.599792480469,265.813720703125,0,1,faces,male,1,1,faces,P,female,VS,F,90,E09,373.931640625
0,0,0,26893,1.5078125,0.21484375,2,1,10,58,7,1153.08618164062,457.858703613281,1,0,NaN,NaN,1,1,faces,P,female,VS,F,90,E09,373.931640625
0,1,1,26910,0.287109375,0.169921875,1,1,1,1,1,590.442199707031,163.090835571289,0,1,faces,female,1,0,faces,P,male,VS,F,91,E09,378.130859375
0,1,0,26919,2.337890625,0.25,2,1,9,50,10,1076.07763671875,541.707458496094,0,1,faces,male,1,0,faces,P,male,VS,F,91,E09,378.130859375
0,0,0,26922,3.134765625,0.212890625,3,1,8,47,13,1103.15368652344,240.625427246094,1,0,NaN,NaN,1,0,faces,P,male,VS,F,91,E09,378.130859375
0,1,0,26941,0.888671875,0.21875,1,1,9,55,4,1185.00134277344,127.929321289062,0,1,faces,male,0,0,faces,A,male,VS,F,92,E09,382.330078125
0,1,1,26950,3.16015625,0.240234375,2,1,8,54,13,1030.81628417969,956.7666015625,0,1,objects,small,0,0,faces,A,male,VS,F,92,E09,382.330078125
0,1,0,26967,0.693359375,0.17578125,1,1,8,37,4,953.010437011719,134.338439941406,0,1,faces,female,1,1,faces,P,male,VS,I,93,E09,386.529296875
0,1,1,26971,1.453125,0.19921875,2,1,12,67,8,1233.76184082031,472.894500732422,0,1,faces,male,1,1,faces,P,male,VS,I,93,E09,386.529296875
0,1,0,26973,1.900390625,0.18359375,3,1,6,34,10,898.544616699219,770.1337890625,0,1,objects,big,1,1,faces,P,male,VS,I,93,E09,386.529296875
0,1,0,26974,2.142578125,0.181640625,4,1,3,14,11,699.147521972656,545.303588867188,0,1,objects,big,1,1,faces,P,male,VS,I,93,E09,386.529296875
0,1,0,26975,2.375,0.185546875,5,0,4,17,12,665.974792480469,812.730041503906,0,1,faces,female,1,1,faces,P,male,VS,I,93,E09,386.529296875
0,1,0,26977,2.708984375,0.212890625,6,0,5,26,14,735.458557128906,854.711181640625,0,1,faces,male,1,1,faces,P,male,VS,I,93,E09,386.529296875
0,0,0,26978,2.98046875,0.248046875,7,0,7,35,15,830.214660644531,873.369812011719,1,0,NaN,NaN,1,1,faces,P,male,VS,I,93,E09,386.529296875
0,1,0,26996,0.640625,0.169921875,1,1,3,22,2,800.947814941406,469.040313720703,0,1,objects,big,0,1,faces,A,male,EX,I,94,E09,390.728515625
0,1,0,27041,0.380859375,0.205078125,1,1,1,10,2,698.861694335938,185.756546020508,0,1,objects,big,0,1,faces,P,female,VS,I,96,E09,399.126953125
0,1,1,27043,0.80078125,0.208984375,2,1,9,57,4,1175.23974609375,349.610809326172,0,1,faces,female,0,1,faces,P,female,VS,I,96,E09,399.126953125
0,1,0,27046,1.517578125,0.216796875,3,1,8,52,7,1042.22265625,732.56005859375,0,1,objects,small,0,1,faces,P,female,VS,I,96,E09,399.126953125
0,1,0,27059,0.501953125,0.203125,1,1,6,28,2,880.925170898438,151.608245849609,0,1,faces,male,1,0,faces,P,female,VS,F,97,E09,403.326171875
1,1,0,27062,1.103515625,0.150390625,2,1,14,76,5,1380.14672851562,454.855072021484,0,1,faces,male,1,0,faces,P,female,VS,F,97,E09,403.326171875
0,1,1,27063,1.36328125,0.173828125,3,1,1,8,6,585.135192871094,868.017028808594,0,1,faces,male,1,0,faces,P,female,VS,F,97,E09,403.326171875
0,1,0,27065,1.787109375,0.20703125,4,1,2,9,8,550.535400390625,983.249572753906,0,1,faces,female,1,0,faces,P,female,VS,F,97,E09,403.326171875
0,1,1,27066,2.068359375,0.193359375,5,0,7,36,9,904.097351074219,934.074890136719,0,1,faces,female,1,0,faces,P,female,VS,F,97,E09,403.326171875
0,1,0,27068,2.39453125,0.314453125,6,0,10,53,11,1082.85095214844,866.134399414062,0,1,faces,female,1,0,faces,P,female,VS,F,97,E09,403.326171875
0,1,0,27070,2.896484375,0.216796875,7,0,8,51,13,1092.88684082031,659.278625488281,0,1,faces,male,1,0,faces,P,female,VS,F,97,E09,403.326171875
0,0,0,27071,3.154296875,0.216796875,8,0,13,69,14,1305.23364257812,647.039489746094,1,0,NaN,NaN,1,0,faces,P,female,VS,F,97,E09,403.326171875
0,0,1,27072,3.41015625,0.1875,9,0,12,68,15,1289.33215332031,530.246765136719,0,1,faces,female,1,0,faces,P,female,VS,F,97,E09,403.326171875
2,0,0,27074,3.818359375,0.2421875,10,0,14,76,17,1407.15075683594,450.364685058594,0,1,faces,male,1,0,faces,P,female,VS,F,97,E09,403.326171875
1,1,0,27093,0.244140625,0.17578125,1,1,5,31,1,848.160217285156,448.198516845703,0,1,faces,male,1,0,faces,P,male,VS,F,98,E09,407.525390625
0,1,1,27094,0.494140625,0.134765625,2,1,8,46,2,1105.51245117188,105.306205749512,0,1,faces,male,1,0,faces,P,male,VS,F,98,E09,407.525390625
1,1,0,27097,1.166015625,0.201171875,3,1,13,77,5,1385.72485351562,531.598388671875,0,1,faces,female,1,0,faces,P,male,VS,F,98,E09,407.525390625
0,0,0,27098,1.431640625,0.23828125,4,1,15,80,6,1360.20947265625,857.919677734375,1,0,NaN,NaN,1,0,faces,P,male,VS,F,98,E09,407.525390625
0,0,0,27100,1.82421875,0.17578125,5,0,6,36,8,892.597839355469,919.306762695312,0,1,objects,small,1,0,faces,P,male,VS,F,98,E09,407.525390625
0,0,0,27101,2.037109375,0.1484375,6,0,4,27,9,786.177368164062,974.822387695312,0,1,faces,female,1,0,faces,P,male,VS,F,98,E09,407.525390625
2,0,0,27104,2.580078125,0.17578125,7,0,5,31,12,867.059265136719,479.740844726562,0,1,faces,male,1,0,faces,P,male,VS,F,98,E09,407.525390625
0,0,1,27105,2.80078125,0.177734375,8,0,7,43,13,1000.80322265625,736.878540039062,0,1,faces,male,1,0,faces,P,male,VS,F,98,E09,407.525390625
2,0,0,27109,3.595703125,0.134765625,9,0,13,77,17,1398.33972167969,505.682067871094,0,1,faces,female,1,0,faces,P,male,VS,F,98,E09,407.525390625
0,0,0,27110,3.751953125,0.17578125,10,0,12,76,18,1391.31652832031,438.077392578125,0,1,faces,male,1,0,faces,P,male,VS,F,98,E09,407.525390625
0,1,0,27120,0.3203125,0.158203125,1,1,11,55,2,1140.234375,156.204818725586,0,1,faces,male,0,1,faces,A,female,EX,F,99,E09,411.724609375
0,1,0,27121,0.54296875,0.166015625,2,1,4,11,3,633.675354003906,264.562652587891,0,1,faces,female,0,1,faces,A,female,EX,F,99,E09,411.724609375
0,1,1,27122,1.5078125,0.326171875,3,1,2,5,4,542.942993164062,539.05419921875,0,1,faces,male,0,1,faces,A,female,EX,F,99,E09,411.724609375
0,1,0,27124,2.076171875,0.197265625,4,1,1,4,6,567.835266113281,456.051513671875,0,1,objects,big,0,1,faces,A,female,EX,F,99,E09,411.724609375
0,1,1,27125,2.37109375,0.173828125,5,0,3,9,7,537.923522949219,921.269836425781,0,1,faces,female,0,1,faces,A,female,EX,F,99,E09,411.724609375
0,1,0,27128,3.09375,0.564453125,6,0,10,50,10,1074.07788085938,537.096740722656,0,1,faces,male,0,1,faces,A,female,EX,F,99,E09,411.724609375
0,1,1,27129,3.697265625,0.22265625,7,0,9,49,11,1072.44689941406,420.191925048828,0,1,faces,female,0,1,faces,A,female,EX,F,99,E09,411.724609375
0,1,1,27150,0.369140625,0.166015625,1,1,1,3,3,527.327453613281,348.760986328125,0,1,faces,female,1,1,faces,P,male,VS,F,100,E09,415.923828125
0,1,1,27152,0.685546875,0.162109375,2,1,2,13,5,687.814636230469,445.458526611328,0,1,faces,male,1,1,faces,P,male,VS,F,100,E09,415.923828125
0,1,1,27154,1.05859375,0.15625,3,1,3,17,7,666.092041015625,878.565124511719,0,1,faces,male,1,1,faces,P,male,VS,F,100,E09,415.923828125
0,1,0,27157,1.689453125,0.181640625,4,1,15,79,10,1396.33764648438,759.216979980469,0,1,faces,male,1,1,faces,P,male,VS,F,100,E09,415.923828125
0,1,0,27158,1.91015625,0.150390625,5,0,14,72,11,1270.31335449219,971.301513671875,0,1,faces,female,1,1,faces,P,male,VS,F,100,E09,415.923828125
0,1,0,27160,2.41015625,0.1328125,6,0,12,65,13,1254.32434082031,207.175445556641,0,1,faces,female,1,1,faces,P,male,VS,F,100,E09,415.923828125
0,1,1,27161,2.58203125,0.240234375,7,0,7,47,14,1095.99267578125,231.092803955078,0,1,faces,female,1,1,faces,P,male,VS,F,100,E09,415.923828125
0,0,1,27163,2.935546875,0.4140625,8,0,11,56,16,1165.37158203125,228.839508056641,1,0,NaN,NaN,1,1,faces,P,male,VS,F,100,E09,415.923828125
1,1,0,27177,0.283203125,0.201171875,1,1,2,14,1,617.3955078125,563.197570800781,0,1,faces,female,0,1,faces,A,female,EX,I,101,E09,420.123046875
0,1,0,27178,0.51953125,0.26171875,2,1,1,5,2,556.773742675781,537.738403320312,0,1,objects,small,0,1,faces,A,female,EX,I,101,E09,420.123046875
2,1,0,27179,0.81640625,0.31640625,3,1,2,14,3,654.62158203125,535.438110351562,0,1,faces,female,0,1,faces,A,female,EX,I,101,E09,420.123046875
0,1,0,27182,1.93359375,0.25390625,4,1,14,75,6,1388.71923828125,339.496612548828,0,1,faces,female,0,1,faces,A,female,EX,I,101,E09,420.123046875
0,1,0,27202,0.4921875,0.111328125,1,1,5,21,2,774.005920410156,323.023498535156,0,1,objects,big,0,0,faces,P,female,VS,I,102,E09,424.322265625
1,1,0,27203,0.654296875,0.16796875,2,1,2,10,3,624.559020996094,179.355484008789,0,1,faces,male,0,0,faces,P,female,VS,I,102,E09,424.322265625
0,1,0,27204,0.8515625,0.146484375,3,1,1,1,4,564.210876464844,127.936279296875,0,1,objects,big,0,0,faces,P,female,VS,I,102,E09,424.322265625
2,1,1,27205,1.02734375,0.197265625,4,1,2,10,5,632.95361328125,147.840042114258,0,1,faces,male,0,0,faces,P,female,VS,I,102,E09,424.322265625
0,1,0,27207,1.435546875,0.18359375,5,0,3,11,7,653.020141601562,234.015960693359,0,1,faces,female,0,0,faces,P,female,VS,I,102,E09,424.322265625
0,1,0,27208,1.662109375,0.279296875,6,0,4,19,8,768.690673828125,152.33235168457,0,1,faces,female,0,0,faces,P,female,VS,I,102,E09,424.322265625
0,1,1,27209,2.001953125,0.28515625,7,0,6,30,9,812.228576660156,374.000701904297,0,1,faces,female,0,0,faces,P,female,VS,I,102,E09,424.322265625
0,1,0,27211,2.529296875,0.173828125,8,0,14,65,11,1269.30944824219,260.929962158203,0,1,objects,small,0,0,faces,P,female,VS,I,102,E09,424.322265625
0,1,0,27212,2.763671875,0.28125,9,0,7,41,12,987.429809570312,565.373779296875,0,1,faces,male,0,0,faces,P,female,VS,I,102,E09,424.322265625
0,1,1,27213,3.083984375,0.158203125,10,0,12,59,13,1161.81274414062,580.757080078125,0,1,faces,female,0,0,faces,P,female,VS,I,102,E09,424.322265625
0,1,1,27215,3.392578125,0.16796875,11,0,15,81,15,1357.94128417969,972.880981445312,0,1,faces,female,0,0,faces,P,female,VS,I,102,E09,424.322265625
0,1,0,27217,3.73046875,0.28515625,12,0,11,54,17,1063.51953125,956.352844238281,0,1,faces,male,0,0,faces,P,female,VS,I,102,E09,424.322265625
0,1,1,27228,0.572265625,0.208984375,1,1,6,37,3,933.05029296875,145.449768066406,0,1,faces,male,0,0,objects,P,big,VS,O,103,E09,428.521484375
0,1,0,27230,0.9375,0.3203125,2,1,12,74,5,1366.47595214844,236.397933959961,0,1,objects,small,0,0,objects,P,big,VS,O,103,E09,428.521484375
0,1,0,27233,1.634765625,0.12890625,3,1,7,49,8,1044.01257324219,450.43310546875,0,1,faces,female,0,0,objects,P,big,VS,O,103,E09,428.521484375
0,1,0,27234,1.83984375,0.2109375,4,1,15,81,9,1310.35913085938,917.890625,0,1,faces,female,0,0,objects,P,big,VS,O,103,E09,428.521484375
0,1,0,27235,2.140625,0.130859375,5,0,3,8,10,567.577392578125,853.446411132812,0,1,faces,female,0,0,objects,P,big,VS,O,103,E09,428.521484375
0,1,0,27237,2.5390625,0.203125,6,0,5,22,12,759.574951171875,445.769317626953,0,1,objects,small,0,0,objects,P,big,VS,O,103,E09,428.521484375
0,1,1,27238,2.806640625,0.1484375,7,0,2,6,13,520.950073242188,661.702880859375,0,1,objects,big,0,0,objects,P,big,VS,O,103,E09,428.521484375
0,1,0,27240,3.205078125,0.296875,8,0,9,58,15,1165.62145996094,454.4208984375,0,1,faces,male,0,0,objects,P,big,VS,O,103,E09,428.521484375
0,1,0,27242,3.677734375,0.23046875,9,0,13,75,17,1372.42504882812,324.276885986328,0,1,objects,big,0,0,objects,P,big,VS,O,103,E09,428.521484375
0,1,0,27256,0.310546875,0.119140625,1,1,2,22,1,753.864196777344,440.808807373047,0,1,objects,big,0,1,objects,A,big,EX,O,104,E09,432.720703125
0,1,1,27257,0.50390625,0.1875,2,1,1,18,2,620.736511230469,923.586364746094,0,1,faces,female,0,1,objects,A,big,EX,O,104,E09,432.720703125
0,1,0,27259,0.86328125,0.263671875,3,1,6,45,4,988.766174316406,961.422424316406,0,1,objects,big,0,1,objects,A,big,EX,O,104,E09,432.720703125
0,1,0,27260,1.22265625,0.14453125,4,1,8,58,5,1161.84594726562,489.812072753906,0,1,faces,male,0,1,objects,A,big,EX,O,104,E09,432.720703125
0,1,0,27262,1.6796875,0.16015625,5,0,4,37,7,980.939514160156,135.542846679688,0,1,faces,female,0,1,objects,A,big,EX,O,104,E09,432.720703125
0,1,0,27263,1.912109375,0.474609375,6,0,14,73,8,1381.54614257812,135.023452758789,0,1,objects,small,0,1,objects,A,big,EX,O,104,E09,432.720703125
0,1,0,27264,3.349609375,0.279296875,7,0,7,48,9,1068.09558105469,350.045013427734,0,1,objects,small,0,1,objects,A,big,EX,O,104,E09,432.720703125
0,1,1,27283,0.365234375,0.162109375,1,1,1,14,2,680.879028320312,577.016540527344,0,1,faces,male,1,0,faces,P,female,VS,F,105,E09,436.919921875
1,1,0,27285,0.6640625,0.13671875,2,1,5,35,4,890.426086425781,791.551635742188,0,1,faces,male,1,0,faces,P,female,VS,F,105,E09,436.919921875
0,1,0,27286,0.833984375,0.380859375,3,1,4,34,5,868.177795410156,763.5458984375,0,1,faces,male,1,0,faces,P,female,VS,F,105,E09,436.919921875
0,1,1,27287,1.259765625,0.236328125,4,1,10,63,6,1149.45361328125,917.558349609375,0,1,faces,female,1,0,faces,P,female,VS,F,105,E09,436.919921875
0,1,0,27289,1.7890625,0.208984375,5,0,14,71,8,1284.30139160156,818.281860351562,0,1,faces,male,1,0,faces,P,female,VS,F,105,E09,436.919921875
0,1,0,27290,2.025390625,0.154296875,6,0,13,70,9,1285.31018066406,742.243896484375,0,1,objects,big,1,0,faces,P,female,VS,F,105,E09,436.919921875
0,1,0,27291,2.20703125,0.181640625,7,0,12,69,10,1282.51159667969,641.825927734375,0,1,faces,female,1,0,faces,P,female,VS,F,105,E09,436.919921875
0,1,0,27294,2.810546875,0.240234375,8,0,6,39,13,945.653137207031,341.001037597656,0,1,faces,female,1,0,faces,P,female,VS,F,105,E09,436.919921875
0,1,0,27295,3.1015625,0.1640625,9,0,3,32,14,826.765808105469,547.161254882812,0,1,objects,big,1,0,faces,P,female,VS,F,105,E09,436.919921875
2,1,1,27296,3.326171875,0.15625,10,0,5,35,15,826.860717773438,858.715637207031,0,1,faces,male,1,0,faces,P,female,VS,F,105,E09,436.919921875
0,1,0,27298,3.7265625,0.18359375,11,0,7,52,17,1050.91711425781,772.24267578125,1,0,NaN,NaN,1,0,faces,P,female,VS,F,105,E09,436.919921875
0,1,0,27299,3.943359375,0.14453125,12,0,8,53,18,1067.15747070312,872.206848144531,0,1,faces,female,1,0,faces,P,female,VS,F,105,E09,436.919921875
0,1,1,27315,0.55859375,0.109375,1,1,2,11,2,645.775695800781,284.41796875,0,1,faces,female,0,1,faces,A,female,VS,F,106,E09,441.119140625
1,1,0,27317,0.896484375,0.197265625,2,1,7,39,4,961.85107421875,329.891632080078,0,1,faces,male,0,1,faces,A,female,VS,F,106,E09,441.119140625
0,1,1,27318,1.185546875,0.150390625,3,1,5,28,5,854.263793945312,93.6756896972656,0,1,faces,male,0,1,faces,A,female,VS,F,106,E09,441.119140625
0,1,0,27320,1.587890625,0.212890625,4,1,10,64,7,1247.35168457031,125.802383422852,0,1,faces,female,0,1,faces,A,female,VS,F,106,E09,441.119140625
0,1,0,27321,1.830078125,0.197265625,5,0,8,55,8,1184.02185058594,127.783897399902,0,1,faces,male,0,1,faces,A,female,VS,F,106,E09,441.119140625
0,1,0,27322,2.068359375,0.21875,6,0,14,73,9,1371.96691894531,131.669723510742,0,1,faces,female,0,1,faces,A,female,VS,F,106,E09,441.119140625
2,1,0,27324,2.529296875,0.279296875,7,0,7,39,11,963.771179199219,337.064727783203,0,1,faces,male,0,1,faces,A,female,VS,F,106,E09,441.119140625
0,1,0,27327,3.287109375,0.1875,8,0,4,26,14,759.025939941406,855.088195800781,0,1,objects,big,0,1,faces,A,female,VS,F,106,E09,441.119140625
0,1,0,27328,3.5078125,0.20703125,9,0,6,35,15,864.088134765625,855.035095214844,0,1,faces,female,0,1,faces,A,female,VS,F,106,E09,441.119140625
0,1,0,27329,3.783203125,0.236328125,10,0,13,71,16,1222.1259765625,838.813659667969,0,1,faces,female,0,1,faces,A,female,VS,F,106,E09,441.119140625
1,1,0,27341,0.318359375,0.248046875,1,1,1,5,1,604.689880371094,569.953491210938,0,1,faces,male,1,1,objects,P,big,VS,O,107,E09,445.318359375
1,1,0,27342,0.59765625,0.146484375,2,1,2,6,2,549.381042480469,667.028625488281,1,0,NaN,NaN,1,1,objects,P,big,VS,O,107,E09,445.318359375
2,0,1,27345,1.265625,0.48828125,3,1,2,6,5,569.311096191406,647.420959472656,1,0,NaN,NaN,1,1,objects,P,big,VS,O,107,E09,445.318359375
2,0,0,27348,2.583984375,0.54296875,4,1,1,5,8,566.832885742188,558.162170410156,0,1,faces,male,1,1,objects,P,big,VS,O,107,E09,445.318359375
3,0,1,27349,3.162109375,0.115234375,5,0,2,6,9,584.91943359375,666.477478027344,1,0,NaN,NaN,1,1,objects,P,big,VS,O,107,E09,445.318359375
1,1,1,27368,0.57421875,0.146484375,1,1,2,11,4,687.165771484375,241.496383666992,0,1,faces,male,0,0,faces,A,female,VS,I,108,E09,449.517578125
0,1,0,27370,1.236328125,0.2890625,2,1,4,22,6,760.037292480469,449.819244384766,0,1,faces,female,0,0,faces,A,female,VS,I,108,E09,449.517578125
0,1,0,27371,1.619140625,0.365234375,3,1,3,19,7,764.858703613281,144.936157226562,0,1,faces,female,0,0,faces,A,female,VS,I,108,E09,449.517578125
2,1,1,27372,2.021484375,0.130859375,4,1,2,11,8,645.620056152344,276.312774658203,0,1,faces,male,0,0,faces,A,female,VS,I,108,E09,449.517578125
0,1,0,27376,3.193359375,0.189453125,5,0,15,77,12,1388.25646972656,556.516235351562,0,1,faces,male,0,0,faces,A,female,VS,I,108,E09,449.517578125
0,1,0,27378,3.65234375,0.234375,6,0,5,26,14,771.901733398438,857.3818359375,0,1,faces,female,0,0,faces,A,female,VS,I,108,E09,449.517578125
0,1,0,27386,0.318359375,0.12109375,1,1,5,23,2,768.404846191406,570.205871582031,0,1,objects,big,0,1,faces,A,male,VS,F,109,E09,453.716796875
0,1,0,27389,0.84765625,0.17578125,2,1,15,72,5,1227.77819824219,941.4716796875,0,1,objects,big,0,1,faces,A,male,VS,F,109,E09,453.716796875
1,1,0,27391,1.314453125,0.220703125,3,1,7,25,7,766.999145507812,748.22119140625,0,1,faces,female,0,1,faces,A,male,VS,F,109,E09,453.716796875
0,1,0,27392,1.560546875,0.205078125,4,1,6,24,8,766.05615234375,680.290161132812,0,1,faces,female,0,1,faces,A,male,VS,F,109,E09,453.716796875
0,1,0,27393,1.845703125,0.28125,5,0,13,60,9,1173.73522949219,671.203552246094,0,1,faces,female,0,1,faces,A,male,VS,F,109,E09,453.716796875
0,1,0,27396,2.47265625,0.2109375,6,0,3,19,12,771.378173828125,189.843460083008,0,1,faces,male,0,1,faces,A,male,VS,F,109,E09,453.716796875
0,1,0,27397,2.724609375,0.181640625,7,0,4,21,13,768.669677734375,387.300903320312,0,1,faces,female,0,1,faces,A,male,VS,F,109,E09,453.716796875
0,1,0,27398,2.990234375,0.17578125,8,0,14,67,14,1261.79968261719,402.826568603516,0,1,faces,female,0,1,faces,A,male,VS,F,109,E09,453.716796875
0,1,0,27399,3.208984375,0.166015625,9,0,11,58,15,1172.97680664062,400.5068359375,0,1,faces,male,0,1,faces,A,male,VS,F,109,E09,453.716796875
0,1,0,27400,3.396484375,0.111328125,10,0,10,57,16,1170.99182128906,368.777954101562,0,1,faces,male,0,1,faces,A,male,VS,F,109,E09,453.716796875
2,1,1,27401,3.599609375,0.119140625,11,0,7,25,17,721.937866210938,725.779846191406,0,1,faces,female,0,1,faces,A,male,VS,F,109,E09,453.716796875
1,1,0,27413,0.4375,0.154296875,1,1,8,58,2,1135.25915527344,410.6494140625,0,1,objects,small,0,1,objects,A,big,VS,O,110,E09,457.916015625
0,1,0,27415,0.814453125,0.26953125,2,1,2,9,4,548.556335449219,962.200500488281,0,1,faces,male,0,1,objects,A,big,VS,O,110,E09,457.916015625
0,1,1,27417,1.439453125,0.16015625,3,1,15,79,6,1353.52917480469,701.3310546875,0,1,objects,big,0,1,objects,A,big,VS,O,110,E09,457.916015625
0,1,0,27420,2.0859375,0.10546875,4,1,5,46,9,1083.7724609375,133.240966796875,0,1,faces,female,0,1,objects,A,big,VS,O,110,E09,457.916015625
0,1,0,27422,2.505859375,0.115234375,5,0,9,60,11,1196.28137207031,648.622375488281,0,1,faces,female,0,1,objects,A,big,VS,O,110,E09,457.916015625
2,1,0,27423,2.69140625,0.232421875,6,0,8,58,12,1176.95788574219,446.185363769531,0,1,objects,small,0,1,objects,A,big,VS,O,110,E09,457.916015625
0,1,0,27424,3.001953125,0.3828125,7,0,4,33,13,865.525268554688,618.763671875,0,1,objects,small,0,1,objects,A,big,VS,O,110,E09,457.916015625
0,1,0,27426,3.634765625,0.173828125,8,0,3,30,15,875.707397460938,329.973175048828,0,1,objects,big,0,1,objects,A,big,VS,O,110,E09,457.916015625
0,1,0,27444,0.3359375,0.140625,1,1,4,14,1,643.608459472656,589.027404785156,0,1,objects,small,0,1,objects,A,small,VS,O,111,E09,462.115234375
0,1,0,27445,0.55078125,0.1640625,2,1,13,53,2,1015.30181884766,855.643127441406,0,1,objects,big,0,1,objects,A,small,VS,O,111,E09,462.115234375
1,1,0,27446,0.76171875,0.25,3,1,5,26,3,756.222717285156,833.787963867188,0,1,objects,small,0,1,objects,A,small,VS,O,111,E09,462.115234375
1,1,0,27450,1.705078125,0.19140625,4,1,10,37,7,923.411804199219,130.869979858398,0,1,objects,small,0,1,objects,A,small,VS,O,111,E09,462.115234375
2,1,0,27452,2.177734375,0.208984375,5,0,10,37,9,977.258239746094,112.260566711426,0,1,objects,small,0,1,objects,A,small,VS,O,111,E09,462.115234375
0,1,0,27454,2.736328125,0.205078125,6,0,7,32,11,880.1474609375,551.411743164062,0,1,faces,female,0,1,objects,A,small,VS,O,111,E09,462.115234375
0,1,0,27455,2.98828125,0.189453125,7,0,1,7,12,586.825744628906,691.932922363281,0,1,objects,big,0,1,objects,A,small,VS,O,111,E09,462.115234375
2,1,0,27457,3.451171875,0.2265625,8,0,5,26,14,786.923278808594,816.876708984375,0,1,objects,small,0,1,objects,A,small,VS,O,111,E09,462.115234375
1,1,0,27476,0.333984375,0.140625,1,1,6,40,1,965.5869140625,424.889587402344,0,1,objects,big,0,1,faces,A,male,EX,F,112,E09,466.314453125
0,1,0,27477,0.544921875,0.236328125,2,1,2,2,2,570.956420898438,264.460906982422,0,1,faces,female,0,1,faces,A,male,EX,F,112,E09,466.314453125
0,1,0,27478,1.474609375,0.306640625,3,1,1,1,3,558.841430664062,119.74779510498,0,1,faces,female,0,1,faces,A,male,EX,F,112,E09,466.314453125
0,1,0,27480,2.076171875,0.12109375,4,1,7,48,5,1098.36401367188,324.093627929688,0,1,faces,female,0,1,faces,A,male,EX,F,112,E09,466.314453125
0,1,0,27481,2.306640625,0.1875,5,0,4,21,6,807.006408691406,344.401000976562,0,1,objects,small,0,1,faces,A,male,EX,F,112,E09,466.314453125
2,1,0,27482,3.2421875,0.4765625,6,0,6,40,7,977.161193847656,415.318145751953,0,1,objects,big,0,1,faces,A,male,EX,F,112,E09,466.314453125
0,1,0,27483,3.755859375,0.27734375,7,0,8,49,8,1060.10095214844,408.674133300781,0,1,faces,male,0,1,faces,A,male,EX,F,112,E09,466.314453125
0,1,0,27500,0.689453125,0.19140625,1,1,3,3,3,549.328735351562,313.899169921875,0,1,faces,male,0,1,faces,A,male,EX,I,113,E09,470.513671875
0,1,1,27502,2.38671875,0.181640625,2,1,4,14,5,671.210754394531,534.608093261719,0,1,objects,small,0,1,faces,A,male,EX,I,113,E09,470.513671875
1,1,0,27519,0.076171875,0.15234375,1,1,6,11,1,675.96728515625,254.936218261719,0,1,faces,male,0,0,faces,A,male,VS,I,114,E09,474.712890625
0,1,0,27520,0.26953125,0.1875,2,1,1,1,2,607.028015136719,137.864608764648,0,1,objects,small,0,0,faces,A,male,VS,I,114,E09,474.712890625
0,1,0,27521,0.498046875,0.41015625,3,1,7,12,3,673.178344726562,327.845275878906,0,1,faces,female,0,0,faces,A,male,VS,I,114,E09,474.712890625
2,1,1,27523,1.05859375,0.107421875,4,1,6,11,5,623.265441894531,273.714416503906,0,1,faces,male,0,0,faces,A,male,VS,I,114,E09,474.712890625
1,1,0,27525,1.513671875,0.185546875,5,0,4,9,7,546.83837890625,953.388549804688,0,1,faces,male,0,0,faces,A,male,VS,I,114,E09,474.712890625
1,1,0,27526,1.78125,0.19140625,6,0,3,7,8,553.620361328125,731.435363769531,0,1,faces,female,0,0,faces,A,male,VS,I,114,E09,474.712890625
2,1,0,27528,2.185546875,0.169921875,7,0,4,9,10,538.765014648438,969.236694335938,0,1,faces,male,0,0,faces,A,male,VS,I,114,E09,474.712890625
2,1,0,27529,2.41796875,1.900390625,8,0,3,7,11,545.599365234375,730.404235839844,0,1,faces,female,0,0,faces,A,male,VS,I,114,E09,474.712890625
0,1,0,27538,0.234375,0.185546875,1,1,8,38,1,923.554138183594,276.125640869141,0,1,faces,male,1,1,faces,P,male,VS,I,118,E09,491.509765625
0,1,1,27539,0.458984375,0.28515625,2,1,6,29,2,811.765930175781,234.974227905273,0,1,faces,female,1,1,faces,P,male,VS,I,118,E09,491.509765625
0,1,0,27541,1.068359375,0.228515625,3,1,2,7,4,599.71435546875,751.853149414062,0,1,objects,small,1,1,faces,P,male,VS,I,118,E09,491.509765625
0,1,0,27542,1.34765625,0.115234375,4,1,3,14,5,670.249938964844,554.578857421875,0,1,objects,small,1,1,faces,P,male,VS,I,118,E09,491.509765625
1,1,0,27543,1.50390625,0.181640625,5,0,7,33,6,866.225524902344,626.990356445312,1,0,NaN,NaN,1,1,faces,P,male,VS,I,118,E09,491.509765625
1,1,0,27544,1.73828125,0.140625,6,0,9,43,7,1009.8173828125,729.91357421875,0,1,objects,big,1,1,faces,P,male,VS,I,118,E09,491.509765625
2,1,1,27545,1.9296875,0.15234375,7,0,7,33,8,841.3173828125,624.530578613281,1,0,NaN,NaN,1,1,faces,P,male,VS,I,118,E09,491.509765625
0,0,1,27547,2.65234375,0.15234375,8,0,5,19,10,753.064270019531,147.6318359375,0,1,faces,male,1,1,faces,P,male,VS,I,118,E09,491.509765625
0,0,0,27550,3.26171875,0.15234375,9,0,14,68,13,1266.77160644531,522.79541015625,0,1,faces,female,1,1,faces,P,male,VS,I,118,E09,491.509765625
0,0,0,27551,3.462890625,0.259765625,10,0,11,50,14,1091.7958984375,529.117126464844,0,1,faces,female,1,1,faces,P,male,VS,I,118,E09,491.509765625
2,0,0,27552,3.771484375,0.1484375,11,0,9,43,15,927.301574707031,755.253784179688,0,1,objects,big,1,1,faces,P,male,VS,I,118,E09,491.509765625
0,1,0,27560,0.302734375,0.154296875,1,1,4,13,1,611.200927734375,448.773590087891,0,1,faces,female,0,0,objects,P,small,VS,O,119,E09,495.708984375
0,1,0,27561,0.505859375,0.169921875,2,1,8,24,2,802.889465332031,595.238403320312,0,1,faces,female,0,0,objects,P,small,VS,O,119,E09,495.708984375
0,1,0,27563,0.92578125,0.16015625,3,1,7,18,4,659.770263671875,919.283752441406,0,1,objects,small,0,0,objects,P,small,VS,O,119,E09,495.708984375
0,1,0,27564,1.171875,0.22265625,4,1,13,63,5,1198.91455078125,890.332824707031,0,1,faces,male,0,0,objects,P,small,VS,O,119,E09,495.708984375
0,1,1,27565,1.44921875,0.19921875,5,0,14,77,6,1397.94604492188,586.198425292969,0,1,objects,small,0,0,objects,P,small,VS,O,119,E09,495.708984375
0,1,0,27567,1.943359375,0.171875,6,0,12,58,8,1110.45361328125,397.527160644531,0,1,faces,male,0,0,objects,P,small,VS,O,119,E09,495.708984375
0,1,0,27568,2.19921875,0.193359375,7,0,6,17,9,667.679138183594,793.254821777344,0,1,faces,male,0,0,objects,P,small,VS,O,119,E09,495.708984375
0,1,0,27569,2.416015625,0.11328125,8,0,5,16,10,652.319580078125,735.756225585938,0,1,faces,female,0,0,objects,P,small,VS,O,119,E09,495.708984375
0,1,0,27570,2.59765625,0.228515625,9,0,11,42,11,964.803100585938,646.553771972656,0,1,objects,big,0,0,objects,P,small,VS,O,119,E09,495.708984375
0,1,0,27572,3.173828125,0.1484375,10,0,1,3,13,544.92529296875,326.484558105469,0,1,objects,big,0,0,objects,P,small,VS,O,119,E09,495.708984375
0,1,0,27574,3.646484375,0.1796875,11,0,15,79,15,1405.38977050781,730.395324707031,0,1,faces,male,0,0,objects,P,small,VS,O,119,E09,495.708984375
0,1,0,27580,0.294921875,0.115234375,1,1,6,34,2,830.986999511719,751.470092773438,0,1,objects,big,0,1,objects,A,small,EX,O,120,E09,499.908203125
0,1,0,27582,0.673828125,0.158203125,2,1,1,2,4,570.675415039062,256.231170654297,0,1,faces,female,0,1,objects,A,small,EX,O,120,E09,499.908203125
0,1,0,27583,1.83984375,0.3359375,3,1,13,65,5,1285.65478515625,238.201507568359,0,1,faces,female,0,1,objects,A,small,EX,O,120,E09,499.908203125
0,1,0,27585,2.556640625,0.24609375,4,1,12,50,7,1047.00341796875,513.350891113281,0,1,objects,small,0,1,objects,A,small,EX,O,120,E09,499.908203125
0,1,0,27586,2.83984375,0.408203125,5,0,8,40,8,979.529663085938,431.235076904297,0,1,faces,female,0,1,objects,A,small,EX,O,120,E09,499.908203125
0,1,0,27588,3.716796875,0.287109375,6,0,5,31,10,880.424987792969,463.675170898438,0,1,faces,male,0,1,objects,A,small,EX,O,120,E09,499.908203125
0,1,0,27602,0.296875,0.13671875,1,1,5,32,1,829.41650390625,556.491394042969,0,1,objects,small,1,0,faces,P,male,VS,I,121,E09,504.107421875
0,1,1,27603,0.47265625,0.1640625,2,1,3,22,2,761.872009277344,477.4814453125,0,1,faces,female,1,0,faces,P,male,VS,I,121,E09,504.107421875
0,1,0,27606,1.078125,0.21875,3,1,2,16,5,638.220520019531,766.120544433594,0,1,faces,male,1,0,faces,P,male,VS,I,121,E09,504.107421875
0,1,0,27607,1.33984375,0.2578125,4,1,6,34,6,879.946533203125,775.650695800781,0,1,faces,male,1,0,faces,P,male,VS,I,121,E09,504.107421875
0,1,0,27610,2.2265625,0.185546875,5,0,9,51,9,1034.28344726562,596.365356445312,0,1,faces,female,1,0,faces,P,male,VS,I,121,E09,504.107421875
0,0,0,27612,2.642578125,0.2578125,6,0,15,79,11,1397.052734375,723.664367675781,1,0,NaN,NaN,1,0,faces,P,male,VS,I,121,E09,504.107421875
0,1,0,27624,0.537109375,0.169921875,1,1,4,13,3,673.8740234375,425.446533203125,0,1,faces,female,0,1,faces,A,female,EX,F,122,E09,508.306640625
0,1,0,27625,0.7578125,0.32421875,2,1,2,11,4,684.582458496094,232.316482543945,0,1,faces,female,0,1,faces,A,female,EX,F,122,E09,508.306640625
