refix,pretarget,multifix,urevent,tonset,dur_added,rank,first_rank,stposrel,stposabs,n,x,y,istarget,isdistractor,distractor_cat,ditractor_atr,trial_targetseen,trial_correct,trial_cat,trial_resp,trial_atr,trial_type,trial_cattype,trial_number,trial_subject,trial_bgn_latency
1,1,1,20987,0.31640625,0.173828125,1,1,9,33,1,853.394592285156,664.492736816406,0,1,faces,female,0,0,faces,A,female,VS,I,1,E11,0.201171875
1,1,0,20989,0.92578125,0.18359375,2,1,5,14,3,612.501281738281,541.9912109375,0,1,faces,female,0,0,faces,A,female,VS,I,1,E11,0.201171875
0,1,0,20990,1.134765625,0.248046875,3,1,4,13,4,645.153442382812,476.493865966797,0,1,objects,big,0,0,faces,A,female,VS,I,1,E11,0.201171875
2,1,1,20991,1.412109375,0.197265625,4,1,5,14,5,651.787414550781,573.856994628906,0,1,faces,female,0,0,faces,A,female,VS,I,1,E11,0.201171875
0,1,1,20994,2.89453125,0.150390625,5,0,14,54,8,1037.60021972656,903.634948730469,0,1,faces,female,0,0,faces,A,female,VS,I,1,E11,0.201171875
2,1,0,20996,3.9296875,0.125,6,0,9,33,10,889.361938476562,678.611206054688,0,1,faces,female,0,0,faces,A,female,VS,I,1,E11,0.201171875
0,1,1,21006,1.447265625,0.130859375,1,1,1,5,2,528.756896972656,568.411437988281,0,1,objects,big,0,0,objects,P,big,VS,O,2,E11,4.400390625
0,1,0,21010,2.94921875,0.203125,2,1,6,42,6,1000.57366943359,670.282897949219,0,1,faces,female,0,0,objects,P,big,VS,O,2,E11,4.400390625
0,1,0,21012,3.345703125,0.244140625,3,1,4,39,8,974.677062988281,374.415344238281,0,1,faces,female,0,0,objects,P,big,VS,O,2,E11,4.400390625
0,1,0,21013,3.623046875,0.287109375,4,1,8,47,9,1067.28979492188,287.523742675781,0,1,faces,male,0,0,objects,P,big,VS,O,2,E11,4.400390625
0,1,1,21025,0.369140625,0.154296875,1,1,5,21,3,735.127807617188,358.475708007812,0,1,faces,male,0,0,faces,A,female,EX,F,3,E11,8.599609375
0,1,0,21027,0.701171875,0.271484375,2,1,7,28,5,844.443298339844,154.568389892578,0,1,faces,female,0,0,faces,A,female,EX,F,3,E11,8.599609375
0,1,1,21029,2.265625,0.173828125,3,1,8,34,7,850.304931640625,735.950317382812,0,1,faces,female,0,0,faces,A,female,EX,F,3,E11,8.599609375
0,1,0,21031,2.720703125,0.1953125,4,1,6,27,9,786.69873046875,969.62548828125,0,1,faces,female,0,0,faces,A,female,EX,F,3,E11,8.599609375
1,1,0,21044,0.390625,0.1484375,1,1,5,39,2,945.38232421875,307.256195068359,1,0,NaN,NaN,1,0,objects,P,small,VS,O,4,E11,12.798828125
0,1,0,21045,0.568359375,0.126953125,2,1,4,29,3,886.155883789062,286.228790283203,0,1,faces,male,1,0,objects,P,small,VS,O,4,E11,12.798828125
0,1,0,21046,0.73828125,0.208984375,3,1,11,57,4,1156.93615722656,296.252349853516,0,1,faces,female,1,0,objects,P,small,VS,O,4,E11,12.798828125
2,1,0,21047,0.982421875,0.177734375,4,1,5,39,5,966.300659179688,375.86083984375,1,0,NaN,NaN,1,0,objects,P,small,VS,O,4,E11,12.798828125
0,1,0,21061,0.41015625,0.291015625,1,1,7,29,2,869.871643066406,235.290115356445,0,1,faces,male,0,1,faces,A,male,EX,F,5,E11,16.998046875
0,1,0,21062,0.73828125,0.28515625,2,1,9,38,3,972.581359863281,236.106491088867,0,1,objects,small,0,1,faces,A,male,EX,F,5,E11,16.998046875
0,1,0,21063,1.072265625,0.1640625,3,1,12,68,4,1244.52709960938,587.390502929688,0,1,faces,male,0,1,faces,A,male,EX,F,5,E11,16.998046875
0,1,0,21064,1.263671875,0.15625,4,1,11,59,5,1204.38940429688,542.289367675781,0,1,faces,female,0,1,faces,A,male,EX,F,5,E11,16.998046875
0,1,0,21065,2.125,0.16015625,5,0,6,27,6,767.048278808594,910.274169921875,0,1,faces,female,0,1,faces,A,male,EX,F,5,E11,16.998046875
0,1,0,21066,2.310546875,0.25,6,0,5,26,7,769.486206054688,840.202087402344,0,1,faces,female,0,1,faces,A,male,EX,F,5,E11,16.998046875
0,1,0,21068,2.814453125,0.16796875,7,0,13,69,9,1292.94653320312,591.947814941406,0,1,objects,small,0,1,faces,A,male,EX,F,5,E11,16.998046875
0,1,0,21070,3.181640625,0.353515625,8,0,14,73,11,1376.19030761719,108.98705291748,0,1,faces,female,0,1,faces,A,male,EX,F,5,E11,16.998046875
0,1,0,21084,0.328125,0.208984375,1,1,7,38,1,987.156127929688,259.4521484375,0,1,objects,small,1,0,faces,P,male,VS,I,6,E11,21.197265625
0,1,0,21085,0.5703125,0.19140625,2,1,9,48,2,1082.23107910156,349.944702148438,0,1,faces,male,1,0,faces,P,male,VS,I,6,E11,21.197265625
0,0,0,21086,0.798828125,0.33203125,3,1,12,56,3,1196.69860839844,262.432800292969,1,0,NaN,NaN,1,0,faces,P,male,VS,I,6,E11,21.197265625
0,0,1,21087,1.171875,0.140625,4,1,13,67,4,1298.29309082031,478.031402587891,0,1,faces,female,1,0,faces,P,male,VS,I,6,E11,21.197265625
0,0,0,21090,1.79296875,0.1328125,5,0,11,53,7,1074.72644042969,802.441223144531,0,1,faces,male,1,0,faces,P,male,VS,I,6,E11,21.197265625
0,0,0,21091,1.9453125,0.140625,6,0,10,52,8,1078.56701660156,758.583740234375,0,1,faces,female,1,0,faces,P,male,VS,I,6,E11,21.197265625
0,0,0,21092,2.142578125,0.248046875,7,0,15,78,9,1388.0830078125,670.336486816406,0,1,faces,male,1,0,faces,P,male,VS,I,6,E11,21.197265625
0,0,0,21093,2.49609375,0.23828125,8,0,3,9,10,564.55322265625,896.895935058594,0,1,objects,big,1,0,faces,P,male,VS,I,6,E11,21.197265625
0,0,0,21095,2.85546875,0.25,9,0,4,17,12,657.8232421875,858.728820800781,0,1,objects,big,1,0,faces,P,male,VS,I,6,E11,21.197265625
0,1,0,21104,0.271484375,0.236328125,1,1,5,13,1,672.131408691406,483.443420410156,0,1,faces,female,1,1,objects,P,big,VS,O,7,E11,25.396484375
0,1,0,21105,0.55859375,0.166015625,2,1,10,60,2,1116.06225585938,679.699157714844,0,1,objects,small,1,1,objects,P,big,VS,O,7,E11,25.396484375
0,1,0,21109,1.283203125,0.794921875,3,1,11,70,6,1257.47912597656,769.027282714844,0,1,objects,big,1,1,objects,P,big,VS,O,7,E11,25.396484375
0,1,0,21110,2.14453125,0.138671875,4,1,8,34,7,817.331481933594,765.0166015625,0,1,faces,male,1,1,objects,P,big,VS,O,7,E11,25.396484375
0,1,1,21111,2.33984375,0.205078125,5,0,3,4,8,588.168151855469,461.781433105469,0,1,objects,big,1,1,objects,P,big,VS,O,7,E11,25.396484375
0,1,0,21113,2.98828125,0.19921875,6,0,2,2,10,561.096984863281,276.018310546875,0,1,faces,male,1,1,objects,P,big,VS,O,7,E11,25.396484375
0,1,0,21114,3.21484375,0.126953125,7,0,1,1,11,578.052490234375,181.853408813477,0,1,faces,female,1,1,objects,P,big,VS,O,7,E11,25.396484375
0,0,0,21115,3.384765625,0.501953125,8,0,7,29,12,890.953674316406,284.053771972656,1,0,NaN,NaN,1,1,objects,P,big,VS,O,7,E11,25.396484375
1,1,0,21123,0.1953125,0.12109375,1,1,5,31,1,886.468811035156,487.814483642578,0,1,faces,male,1,0,faces,P,male,VS,F,8,E11,29.595703125
0,1,1,21124,0.345703125,0.197265625,2,1,4,30,2,852.912719726562,386.078704833984,0,1,objects,big,1,0,faces,P,male,VS,F,8,E11,29.595703125
0,1,0,21126,0.8046875,0.169921875,3,1,3,20,4,728.214050292969,258.966339111328,0,1,objects,small,1,0,faces,P,male,VS,F,8,E11,29.595703125
0,1,1,21127,1.0234375,0.1875,4,1,2,15,5,667.082824707031,623.359008789062,0,1,objects,big,1,0,faces,P,male,VS,F,8,E11,29.595703125
0,1,0,21129,1.4296875,0.248046875,5,0,1,8,7,539.89794921875,875.189514160156,0,1,faces,female,1,0,faces,P,male,VS,F,8,E11,29.595703125
1,1,0,21130,1.736328125,0.15234375,6,0,10,45,8,980.846740722656,989.097961425781,0,1,objects,small,1,0,faces,P,male,VS,F,8,E11,29.595703125
0,1,0,21131,1.955078125,0.1328125,7,0,14,70,9,1264.07019042969,724.111694335938,0,1,faces,male,1,0,faces,P,male,VS,F,8,E11,29.595703125
0,0,0,21132,2.11328125,0.48828125,8,0,13,69,10,1280.91674804688,675.781311035156,1,0,NaN,NaN,1,0,faces,P,male,VS,F,8,E11,29.595703125
2,0,0,21133,2.6640625,0.17578125,9,0,10,45,11,951.326293945312,973.176818847656,0,1,objects,small,1,0,faces,P,male,VS,F,8,E11,29.595703125
2,0,0,21136,3.490234375,0.193359375,10,0,5,31,14,908.115051269531,392.298217773438,0,1,faces,male,1,0,faces,P,male,VS,F,8,E11,29.595703125
0,0,0,21137,3.71484375,0.349609375,11,0,9,39,15,968.87353515625,366.169158935547,0,1,faces,female,1,0,faces,P,male,VS,F,8,E11,29.595703125
0,1,1,21143,0.248046875,0.23828125,1,1,11,66,1,1284.19970703125,323.105987548828,0,1,faces,female,0,1,faces,A,male,EX,I,9,E11,33.794921875
0,1,0,21145,0.76953125,0.15625,2,1,14,75,3,1364.61499023438,351.940582275391,0,1,objects,small,0,1,faces,A,male,EX,I,9,E11,33.794921875
0,1,0,21147,1.70703125,0.12890625,3,1,6,35,5,847.426086425781,879.772338867188,0,1,faces,female,0,1,faces,A,male,EX,I,9,E11,33.794921875
0,1,0,21148,1.890625,0.263671875,4,1,5,14,6,626.503723144531,557.971496582031,0,1,faces,male,0,1,faces,A,male,EX,I,9,E11,33.794921875
0,1,0,21149,2.1796875,0.173828125,5,0,2,5,7,531.482971191406,544.486450195312,0,1,objects,small,0,1,faces,A,male,EX,I,9,E11,33.794921875
0,1,0,21150,2.4140625,0.162109375,6,0,1,2,8,560.011352539062,233.216110229492,0,1,faces,male,0,1,faces,A,male,EX,I,9,E11,33.794921875
0,1,0,21152,3.35546875,0.322265625,7,0,9,59,10,1172.50720214844,522.727905273438,0,1,objects,big,0,1,faces,A,male,EX,I,9,E11,33.794921875
0,1,0,21153,3.708984375,0.5625,8,0,12,68,11,1260.89501953125,554.253845214844,0,1,objects,big,0,1,faces,A,male,EX,I,9,E11,33.794921875
0,1,0,21163,0.205078125,0.119140625,1,1,14,67,2,1222.74047851562,453.535003662109,0,1,faces,female,0,1,faces,A,male,VS,I,10,E11,37.994140625
0,1,0,21165,0.5078125,0.1484375,2,1,11,47,4,1054.00817871094,236.582626342773,0,1,objects,big,0,1,faces,A,male,VS,I,10,E11,37.994140625
0,1,0,21166,0.697265625,0.205078125,3,1,8,28,5,844.5712890625,150.589233398438,0,1,objects,small,0,1,faces,A,male,VS,I,10,E11,37.994140625
0,1,0,21168,1.126953125,0.123046875,4,1,6,15,7,648.241577148438,639.092041015625,0,1,objects,big,0,1,faces,A,male,VS,I,10,E11,37.994140625
1,1,0,21169,1.291015625,0.138671875,5,0,2,8,8,550.128295898438,828.6103515625,0,1,faces,male,0,1,faces,A,male,VS,I,10,E11,37.994140625
0,1,0,21171,1.646484375,0.126953125,6,0,10,43,10,951.332824707031,755.249816894531,0,1,faces,male,0,1,faces,A,male,VS,I,10,E11,37.994140625
0,1,0,21172,1.8359375,0.2421875,7,0,13,61,11,1185.15393066406,755.988586425781,0,1,faces,female,0,1,faces,A,male,VS,I,10,E11,37.994140625
0,1,0,21173,2.119140625,0.111328125,8,0,15,71,12,1286.12927246094,880.759887695312,0,1,faces,female,0,1,faces,A,male,VS,I,10,E11,37.994140625
0,1,0,21174,2.337890625,0.119140625,9,0,3,9,13,528.199035644531,942.777648925781,0,1,faces,female,0,1,faces,A,male,VS,I,10,E11,37.994140625
2,1,0,21175,2.484375,0.513671875,10,0,2,8,14,561.114074707031,869.223510742188,0,1,faces,male,0,1,faces,A,male,VS,I,10,E11,37.994140625
0,1,0,21177,3.2109375,0.2265625,11,0,4,11,16,666.786254882812,259.961090087891,0,1,faces,male,0,1,faces,A,male,VS,I,10,E11,37.994140625
0,1,1,21184,0.185546875,0.12109375,1,1,8,39,1,942.200500488281,383.172760009766,0,1,faces,female,0,1,faces,P,female,VS,I,11,E11,42.193359375
0,1,0,21187,0.6015625,0.146484375,2,1,9,55,4,1131.85400390625,165.64013671875,0,1,faces,female,0,1,faces,P,female,VS,I,11,E11,42.193359375
0,1,0,21189,0.95703125,0.294921875,3,1,13,69,6,1248.43835449219,651.064392089844,0,1,faces,female,0,1,faces,P,female,VS,I,11,E11,42.193359375
0,1,0,21190,1.3125,0.140625,4,1,14,72,7,1278.63159179688,949.411010742188,0,1,objects,small,0,1,faces,P,female,VS,I,11,E11,42.193359375
0,1,0,21191,1.48828125,0.126953125,5,0,12,63,8,1152.34509277344,963.715454101562,0,1,faces,female,0,1,faces,P,female,VS,I,11,E11,42.193359375
0,1,1,21193,2.728515625,0.201171875,6,0,2,15,10,668.24658203125,641.158752441406,0,1,faces,female,0,1,faces,P,female,VS,I,11,E11,42.193359375
1,1,1,21202,0.326171875,0.12109375,1,1,5,21,2,800.862060546875,320.932830810547,0,1,objects,big,0,1,objects,A,big,VS,O,12,E11,46.392578125
0,1,0,21204,0.642578125,0.2890625,2,1,1,2,4,537.958740234375,258.752258300781,0,1,objects,small,0,1,objects,A,big,VS,O,12,E11,46.392578125
0,1,0,21207,1.326171875,0.181640625,3,1,11,43,7,958.694885253906,772.290771484375,0,1,objects,big,0,1,objects,A,big,VS,O,12,E11,46.392578125
0,1,0,21211,2.140625,0.283203125,4,1,3,5,11,543.813171386719,560.344909667969,0,1,objects,big,0,1,objects,A,big,VS,O,12,E11,46.392578125
0,1,0,21213,2.681640625,0.138671875,5,0,8,27,13,777.678527832031,956.158569335938,0,1,faces,male,0,1,objects,A,big,VS,O,12,E11,46.392578125
2,1,0,21215,3.037109375,0.138671875,6,0,5,21,15,768.910705566406,363.490295410156,0,1,objects,big,0,1,objects,A,big,VS,O,12,E11,46.392578125
0,1,0,21217,3.392578125,0.125,7,0,13,49,17,1067.35424804688,465.409545898438,0,1,faces,male,0,1,objects,A,big,VS,O,12,E11,46.392578125
0,1,1,21226,0.216796875,0.16796875,1,1,5,22,1,789.098266601562,423.911193847656,0,1,faces,male,1,0,faces,P,female,VS,I,13,E11,50.591796875
0,1,0,21228,0.59765625,0.185546875,2,1,6,31,3,835.203857421875,445.699615478516,0,1,faces,male,1,0,faces,P,female,VS,I,13,E11,50.591796875
0,1,0,21229,0.81640625,0.220703125,3,1,9,41,4,949.331909179688,544.186889648438,0,1,faces,male,1,0,faces,P,female,VS,I,13,E11,50.591796875
0,1,1,21230,1.083984375,0.134765625,4,1,1,2,5,547.523803710938,271.749176025391,0,1,objects,small,1,0,faces,P,female,VS,I,13,E11,50.591796875
0,0,0,21232,1.388671875,0.283203125,5,0,4,12,7,619.830627441406,335.537811279297,1,0,NaN,NaN,1,0,faces,P,female,VS,I,13,E11,50.591796875
0,0,0,21233,1.716796875,0.236328125,6,0,8,37,8,947.330444335938,139.798843383789,0,1,objects,big,1,0,faces,P,female,VS,I,13,E11,50.591796875
0,0,0,21236,2.45703125,0.1484375,7,0,3,8,11,550.642395019531,879.65673828125,0,1,faces,male,1,0,faces,P,female,VS,I,13,E11,50.591796875
0,0,0,21237,2.669921875,0.107421875,8,0,10,45,12,919.967834472656,959.295227050781,0,1,faces,male,1,0,faces,P,female,VS,I,13,E11,50.591796875
0,0,0,21238,2.798828125,0.123046875,9,0,7,36,13,873.619750976562,958.203369140625,0,1,faces,female,1,0,faces,P,female,VS,I,13,E11,50.591796875
0,0,0,21239,2.9765625,0.24609375,10,0,11,63,14,1182.87622070312,978.587646484375,0,1,objects,big,1,0,faces,P,female,VS,I,13,E11,50.591796875
0,0,0,21240,3.28515625,0.208984375,11,0,13,69,15,1272.42346191406,630.608947753906,0,1,objects,small,1,0,faces,P,female,VS,I,13,E11,50.591796875
0,0,0,21242,3.71484375,0.2265625,12,0,15,75,17,1385.66223144531,376.329071044922,0,1,faces,female,1,0,faces,P,female,VS,I,13,E11,50.591796875
0,1,0,21252,0.68359375,0.158203125,1,1,5,19,3,714.142883300781,139.845504760742,0,1,faces,female,0,1,objects,A,small,VS,O,14,E11,54.791015625
0,1,0,21253,0.8828125,0.15625,2,1,1,2,4,548.918884277344,258.786071777344,0,1,faces,female,0,1,objects,A,small,VS,O,14,E11,54.791015625
1,1,0,21255,1.28515625,0.16015625,3,1,11,60,6,1168.90124511719,610.591918945312,0,1,objects,small,0,1,objects,A,small,VS,O,14,E11,54.791015625
0,1,0,21256,1.484375,0.21484375,4,1,15,79,7,1375.89990234375,719.7255859375,0,1,objects,small,0,1,objects,A,small,VS,O,14,E11,54.791015625
0,1,1,21257,1.76953125,0.1171875,5,0,4,16,8,674.125427246094,758.338195800781,0,1,faces,male,0,1,objects,A,small,VS,O,14,E11,54.791015625
0,1,0,21259,2.052734375,0.15625,6,0,9,39,10,948.839233398438,294.774841308594,0,1,objects,big,0,1,objects,A,small,VS,O,14,E11,54.791015625
2,1,0,21261,2.462890625,0.171875,7,0,11,60,12,1175.73791503906,610.938781738281,0,1,objects,small,0,1,objects,A,small,VS,O,14,E11,54.791015625
0,1,0,21262,2.689453125,0.20703125,8,0,14,77,13,1387.04162597656,537.590454101562,0,1,faces,male,0,1,objects,A,small,VS,O,14,E11,54.791015625
3,1,1,21263,2.935546875,0.32421875,9,0,11,60,14,1166.6025390625,649.650756835938,0,1,objects,small,0,1,objects,A,small,VS,O,14,E11,54.791015625
0,1,0,21265,3.8671875,0.185546875,10,0,8,38,16,919.218688964844,232.10173034668,0,1,objects,big,0,1,objects,A,small,VS,O,14,E11,54.791015625
0,1,1,21271,0.375,0.259765625,1,1,6,20,2,739.874206542969,224.595474243164,0,1,faces,female,0,0,objects,A,small,EX,O,15,E11,58.990234375
0,1,0,21272,0.69140625,0.1484375,2,1,12,55,3,1149.67077636719,123.014236450195,0,1,faces,female,0,0,objects,A,small,EX,O,15,E11,58.990234375
0,1,1,21275,1.90234375,0.1640625,3,1,2,14,6,636.936767578125,519.227966308594,0,1,faces,male,0,0,objects,A,small,EX,O,15,E11,58.990234375
0,1,0,21277,2.318359375,0.169921875,4,1,4,17,8,665.247375488281,874.071105957031,0,1,faces,male,0,0,objects,A,small,EX,O,15,E11,58.990234375
0,1,0,21278,2.505859375,0.197265625,5,0,5,18,9,653.332702636719,906.411193847656,0,1,faces,female,0,0,objects,A,small,EX,O,15,E11,58.990234375
0,1,0,21292,0.25390625,0.15234375,1,1,14,75,1,1353.60729980469,327.770690917969,0,1,objects,small,0,0,faces,P,female,VS,F,16,E11,63.189453125
0,1,0,21293,0.4609375,0.111328125,2,1,5,19,2,778.022338867188,133.280731201172,0,1,objects,big,0,0,faces,P,female,VS,F,16,E11,63.189453125
1,1,0,21294,1.134765625,0.171875,3,1,9,42,3,936.814208984375,605.14111328125,0,1,faces,male,0,0,faces,P,female,VS,F,16,E11,63.189453125
0,1,0,21296,1.5,0.263671875,4,1,6,25,5,736.758117675781,705.227905273438,0,1,faces,male,0,0,faces,P,female,VS,F,16,E11,63.189453125
0,1,0,21297,1.88671875,0.173828125,5,0,11,60,6,1194.00537109375,683.637756347656,0,1,faces,female,0,0,faces,P,female,VS,F,16,E11,63.189453125
1,1,0,21298,2.072265625,0.111328125,6,0,12,61,7,1165.78698730469,694.047302246094,0,1,faces,male,0,0,faces,P,female,VS,F,16,E11,63.189453125
0,1,1,21299,2.244140625,0.216796875,7,0,2,7,8,509.802185058594,755.450439453125,0,1,faces,male,0,0,faces,P,female,VS,F,16,E11,63.189453125
0,1,1,21301,2.66796875,0.169921875,8,0,7,27,10,756.641418457031,943.571899414062,0,1,faces,male,0,0,faces,P,female,VS,F,16,E11,63.189453125
2,1,0,21303,3.455078125,0.22265625,9,0,9,42,12,933.493713378906,604.777465820312,0,1,faces,male,0,0,faces,P,female,VS,F,16,E11,63.189453125
2,1,0,21305,3.90234375,0.203125,10,0,12,61,14,1154.90698242188,711.479125976562,0,1,faces,male,0,0,faces,P,female,VS,F,16,E11,63.189453125
0,1,0,21315,1.369140625,0.13671875,1,1,14,76,3,1364.63366699219,400.203308105469,0,1,faces,female,0,1,faces,A,female,VS,F,17,E11,67.388671875
0,1,0,21316,1.54296875,0.232421875,2,1,12,73,4,1334.07458496094,157.426132202148,0,1,objects,big,0,1,faces,A,female,VS,F,17,E11,67.388671875
0,1,1,21317,1.796875,0.2109375,3,1,13,74,5,1365.71472167969,208.284210205078,0,1,faces,male,0,1,faces,A,female,VS,F,17,E11,67.388671875
0,1,0,21319,2.13671875,0.21484375,4,1,10,64,7,1246.82409667969,125.052742004395,0,1,faces,female,0,1,faces,A,female,VS,F,17,E11,67.388671875
0,1,0,21321,2.609375,0.11328125,5,0,2,8,9,513.816772460938,871.106567382812,0,1,objects,big,0,1,faces,A,female,VS,F,17,E11,67.388671875
0,1,0,21322,2.744140625,0.140625,6,0,3,9,10,517.019653320312,937.462158203125,0,1,faces,male,0,1,faces,A,female,VS,F,17,E11,67.388671875
0,1,1,21323,2.958984375,0.125,7,0,15,81,11,1326.27917480469,906.707153320312,0,1,faces,female,0,1,faces,A,female,VS,F,17,E11,67.388671875
0,1,0,21327,3.8046875,0.197265625,8,0,8,50,15,1037.02514648438,580.336181640625,0,1,faces,female,0,1,faces,A,female,VS,F,17,E11,67.388671875
0,1,0,21334,0.36328125,0.201171875,1,1,3,20,2,799.890197753906,227.150466918945,0,1,objects,small,1,1,faces,P,female,VS,F,18,E11,71.587890625
0,1,1,21337,0.919921875,0.181640625,2,1,10,48,5,1029.08142089844,310.145477294922,0,1,faces,female,1,1,faces,P,female,VS,F,18,E11,71.587890625
0,1,0,21338,1.142578125,0.326171875,3,1,14,65,6,1246.177734375,206.478897094727,0,1,faces,female,1,1,faces,P,female,VS,F,18,E11,71.587890625
0,1,1,21339,1.5,0.203125,4,1,15,74,7,1349.64855957031,241.80793762207,0,1,faces,male,1,1,faces,P,female,VS,F,18,E11,71.587890625
0,1,0,21341,1.875,0.2734375,5,0,12,55,9,1150.28344726562,121.40209197998,0,1,faces,female,1,1,faces,P,female,VS,F,18,E11,71.587890625
0,1,0,21344,2.490234375,0.201171875,6,0,7,26,12,727.052490234375,841.348083496094,0,1,faces,female,1,1,faces,P,female,VS,F,18,E11,71.587890625
1,0,0,21345,2.751953125,0.220703125,7,0,11,53,13,1033.84216308594,824.382446289062,1,0,NaN,NaN,1,1,faces,P,female,VS,F,18,E11,71.587890625
0,0,0,21346,3.037109375,0.14453125,8,0,5,22,14,719.3427734375,459.252593994141,0,1,faces,male,1,1,faces,P,female,VS,F,18,E11,71.587890625
0,0,0,21347,3.2109375,0.21875,9,0,1,13,15,697.144714355469,405.589385986328,0,1,objects,small,1,1,faces,P,female,VS,F,18,E11,71.587890625
2,0,0,21348,3.501953125,0.138671875,10,0,11,53,16,1031.44311523438,840.562316894531,1,0,NaN,NaN,1,1,faces,P,female,VS,F,18,E11,71.587890625
0,1,1,21359,0.197265625,0.216796875,1,1,5,32,2,855.83056640625,518.699829101562,0,1,faces,male,1,1,faces,P,female,VS,F,19,E11,75.787109375
0,1,0,21361,0.578125,0.291015625,2,1,15,77,4,1334.404296875,530.192199707031,0,1,faces,male,1,1,faces,P,female,VS,F,19,E11,75.787109375
0,1,0,21362,0.908203125,0.158203125,3,1,12,70,5,1209.6474609375,716.123046875,0,1,faces,female,1,1,faces,P,female,VS,F,19,E11,75.787109375
0,1,0,21363,1.1015625,0.212890625,4,1,10,52,6,1023.79400634766,736.505493164062,0,1,faces,male,1,1,faces,P,female,VS,F,19,E11,75.787109375
1,1,0,21365,1.5078125,0.236328125,5,0,2,7,8,523.920288085938,740.422790527344,0,1,faces,female,1,1,faces,P,female,VS,F,19,E11,75.787109375
2,1,0,21367,1.990234375,0.177734375,6,0,2,7,10,509.663879394531,753.655578613281,0,1,faces,female,1,1,faces,P,female,VS,F,19,E11,75.787109375
0,1,0,21368,2.265625,0.19921875,7,0,9,47,11,1088.17236328125,194.62109375,0,1,objects,big,1,1,faces,P,female,VS,F,19,E11,75.787109375
1,0,0,21370,2.591796875,0.30859375,8,0,8,46,13,1050.60302734375,125.391342163086,1,0,NaN,NaN,1,1,faces,P,female,VS,F,19,E11,75.787109375
0,0,0,21371,2.94140625,0.158203125,9,0,11,65,14,1255.39404296875,255.691909790039,0,1,faces,male,1,1,faces,P,female,VS,F,19,E11,75.787109375
2,0,0,21372,3.138671875,0.189453125,10,0,8,46,15,1044.65881347656,170.926559448242,1,0,NaN,NaN,1,1,faces,P,female,VS,F,19,E11,75.787109375
0,1,0,21381,0.634765625,0.28515625,1,1,5,12,1,644.765991210938,347.2666015625,0,1,faces,male,0,1,faces,A,male,VS,F,20,E11,79.986328125
0,1,0,21382,0.95703125,0.23828125,2,1,2,2,2,539.997863769531,233.781784057617,0,1,faces,male,0,1,faces,A,male,VS,F,20,E11,79.986328125
0,1,1,21383,1.275390625,0.125,3,1,10,27,3,721.006103515625,952.254943847656,0,1,faces,male,0,1,faces,A,male,VS,F,20,E11,79.986328125
0,1,0,21385,1.595703125,0.125,4,1,9,26,5,727.697082519531,828.291137695312,0,1,faces,female,0,1,faces,A,male,VS,F,20,E11,79.986328125
0,1,0,21387,1.923828125,0.134765625,5,0,13,59,7,1147.56799316406,523.578002929688,0,1,objects,big,0,1,faces,A,male,VS,F,20,E11,79.986328125
0,1,0,21389,2.22265625,0.1640625,6,0,14,65,9,1224.35607910156,260.613708496094,0,1,faces,female,0,1,faces,A,male,VS,F,20,E11,79.986328125
0,1,1,21390,2.423828125,0.33984375,7,0,15,67,10,1240.27429199219,449.98828125,0,1,faces,male,0,1,faces,A,male,VS,F,20,E11,79.986328125
0,1,0,21394,3.37109375,0.439453125,8,0,11,30,14,844.761169433594,362.812103271484,0,1,objects,big,0,1,faces,A,male,VS,F,20,E11,79.986328125
0,1,0,21406,1.82421875,0.126953125,1,1,12,63,2,1111.1259765625,963.638122558594,0,1,faces,male,1,1,objects,P,small,VS,O,21,E11,84.185546875
0,1,0,21407,2.021484375,0.16796875,2,1,13,69,3,1260.20629882812,591.272705078125,0,1,faces,female,1,1,objects,P,small,VS,O,21,E11,84.185546875
0,1,0,21408,2.22265625,0.181640625,3,1,14,77,4,1320.0009765625,509.190887451172,0,1,objects,big,1,1,objects,P,small,VS,O,21,E11,84.185546875
0,1,1,21409,2.44921875,0.19140625,4,1,11,48,5,1013.49053955078,348.961151123047,1,0,NaN,NaN,1,1,objects,P,small,VS,O,21,E11,84.185546875
0,0,0,21412,3.2734375,0.162109375,5,0,5,28,8,856.355163574219,170.395767211914,0,1,objects,small,1,1,objects,P,small,VS,O,21,E11,84.185546875
0,1,0,21417,0.375,0.357421875,1,1,12,48,2,1016.22045898438,321.372985839844,0,1,faces,female,0,1,objects,A,big,EX,O,22,E11,88.384765625
0,1,1,21418,0.791015625,0.11328125,2,1,6,28,3,866.752014160156,142.017150878906,0,1,objects,big,0,1,objects,A,big,EX,O,22,E11,88.384765625
0,1,1,21420,1.28125,0.1640625,3,1,4,11,5,635.035827636719,289.022308349609,0,1,faces,female,0,1,objects,A,big,EX,O,22,E11,88.384765625
0,1,0,21424,2.009765625,0.173828125,4,1,10,40,9,1001.62518310547,463.381988525391,0,1,faces,male,0,1,objects,A,big,EX,O,22,E11,88.384765625
0,1,0,21425,2.220703125,0.236328125,5,0,8,31,10,867.0517578125,404.789733886719,0,1,objects,small,0,1,objects,A,big,EX,O,22,E11,88.384765625
0,1,0,21426,2.48046875,0.173828125,6,0,7,30,11,846.498779296875,362.994171142578,0,1,faces,male,0,1,objects,A,big,EX,O,22,E11,88.384765625
0,1,1,21427,2.693359375,0.177734375,7,0,1,3,12,555.992248535156,318.33349609375,0,1,objects,big,0,1,objects,A,big,EX,O,22,E11,88.384765625
1,1,0,21443,0.4609375,0.166015625,1,1,8,31,2,872.823791503906,391.272705078125,0,1,faces,female,0,0,faces,P,female,VS,I,23,E11,92.583984375
0,1,1,21445,0.814453125,0.154296875,2,1,10,38,4,960.975891113281,197.774597167969,0,1,faces,male,0,0,faces,P,female,VS,I,23,E11,92.583984375
0,1,0,21447,1.7578125,0.171875,3,1,5,25,6,739.812866210938,763.480895996094,0,1,objects,small,0,0,faces,P,female,VS,I,23,E11,92.583984375
2,1,0,21449,2.1796875,0.1875,4,1,8,31,8,825.878967285156,413.933929443359,0,1,faces,female,0,0,faces,P,female,VS,I,23,E11,92.583984375
0,1,1,21450,2.41015625,0.142578125,5,0,9,35,9,828.767028808594,854.968505859375,0,1,faces,female,0,0,faces,P,female,VS,I,23,E11,92.583984375
0,1,0,21452,2.779296875,0.181640625,6,0,4,18,11,696.600280761719,936.973937988281,0,1,faces,male,0,0,faces,P,female,VS,I,23,E11,92.583984375
0,1,0,21453,3.025390625,0.205078125,7,0,15,63,12,1115.71899414062,910.587890625,0,1,faces,male,0,0,faces,P,female,VS,I,23,E11,92.583984375
0,1,0,21454,3.3046875,0.125,8,0,12,47,13,1079.28820800781,191.437652587891,0,1,objects,big,0,0,faces,P,female,VS,I,23,E11,92.583984375
0,1,0,21455,3.4609375,0.294921875,9,0,11,46,14,1031.13061523438,150.005981445312,0,1,faces,female,0,0,faces,P,female,VS,I,23,E11,92.583984375
3,1,0,21456,3.796875,0.267578125,10,0,8,31,15,843.956604003906,463.789916992188,0,1,faces,female,0,0,faces,P,female,VS,I,23,E11,92.583984375
1,1,1,21463,0.212890625,0.125,1,1,4,32,1,831.602294921875,587.614868164062,0,1,objects,big,0,1,faces,A,female,EX,I,24,E11,96.783203125
0,1,0,21466,0.77734375,0.236328125,2,1,3,15,4,625.820129394531,641.473510742188,0,1,objects,small,0,1,faces,A,female,EX,I,24,E11,96.783203125
2,1,0,21467,1.056640625,0.306640625,3,1,4,32,5,834.57470703125,532.78076171875,0,1,objects,big,0,1,faces,A,female,EX,I,24,E11,96.783203125
0,1,1,21468,1.412109375,0.2109375,4,1,7,37,6,984.803649902344,159.635543823242,0,1,objects,small,0,1,faces,A,female,EX,I,24,E11,96.783203125
0,1,0,21470,2.59375,0.123046875,5,0,14,79,8,1337.74450683594,730.960693359375,0,1,faces,male,0,1,faces,A,female,EX,I,24,E11,96.783203125
0,1,0,21471,2.7421875,0.51171875,6,0,13,78,9,1320.9560546875,633.548156738281,0,1,objects,small,0,1,faces,A,female,EX,I,24,E11,96.783203125
0,1,0,21478,0.279296875,0.162109375,1,1,12,68,1,1229.27746582031,519.040405273438,0,1,faces,female,1,1,faces,P,female,VS,F,25,E11,100.982421875
0,1,0,21479,1.505859375,0.111328125,2,1,13,71,2,1210.64868164062,889.566223144531,0,1,faces,female,1,1,faces,P,female,VS,F,25,E11,100.982421875
0,1,0,21480,1.65234375,0.169921875,3,1,8,53,3,1058.00817871094,821.852722167969,0,1,faces,male,1,1,faces,P,female,VS,F,25,E11,100.982421875
0,0,0,21482,2.71484375,1.205078125,4,1,2,6,5,541.649475097656,671.227416992188,1,0,NaN,NaN,1,1,faces,P,female,VS,F,25,E11,100.982421875
0,1,0,21487,0.361328125,0.134765625,1,1,3,31,1,860.202392578125,436.010345458984,0,1,objects,big,1,1,faces,P,female,VS,F,26,E11,105.181640625
0,1,1,21488,0.541015625,0.181640625,2,1,11,68,2,1246.27758789062,538.7890625,1,0,NaN,NaN,1,1,faces,P,female,VS,F,26,E11,105.181640625
0,1,0,21490,3.744140625,0.119140625,3,1,10,66,4,1250.08679199219,319.730072021484,0,1,faces,male,1,1,faces,P,female,VS,F,26,E11,105.181640625
1,1,0,21501,1.18359375,0.322265625,1,1,4,17,3,695.188354492188,808.695922851562,0,1,faces,female,0,1,faces,A,female,VS,I,27,E11,109.380859375
2,1,1,21503,1.798828125,0.306640625,2,1,4,17,5,709.581848144531,798.464538574219,0,1,faces,female,0,1,faces,A,female,VS,I,27,E11,109.380859375
0,1,0,21505,2.330078125,0.234375,3,1,13,63,7,1199.00512695312,952.962158203125,0,1,faces,male,0,1,faces,A,female,VS,I,27,E11,109.380859375
0,1,0,21506,2.58984375,0.1328125,4,1,12,62,8,1208.69104003906,886.696594238281,0,1,faces,male,0,1,faces,A,female,VS,I,27,E11,109.380859375
0,1,0,21509,3.15625,0.119140625,5,0,14,69,11,1265.44226074219,659.015869140625,0,1,faces,female,0,1,faces,A,female,VS,I,27,E11,109.380859375
0,1,0,21512,3.8515625,0.205078125,6,0,7,38,14,950.819702148438,231.9296875,0,1,objects,small,0,1,faces,A,female,VS,I,27,E11,109.380859375
0,1,0,21519,0.86328125,0.212890625,1,1,7,21,4,801.790283203125,312.264373779297,0,1,faces,female,0,1,faces,A,female,EX,I,28,E11,113.580078125
0,1,0,21533,0.224609375,0.19921875,1,1,3,22,1,796.5595703125,471.628356933594,0,1,objects,small,1,1,faces,P,male,VS,I,29,E11,117.779296875
0,1,0,21536,0.931640625,0.126953125,2,1,6,37,4,974.068542480469,182.935195922852,0,1,faces,female,1,1,faces,P,male,VS,I,29,E11,117.779296875
0,1,0,21538,1.408203125,0.193359375,3,1,12,70,6,1295.00634765625,736.466064453125,0,1,objects,big,1,1,faces,P,male,VS,I,29,E11,117.779296875
0,1,0,21547,3.0625,0.13671875,4,1,15,76,15,1382.28784179688,471.13623046875,1,0,NaN,NaN,1,1,faces,P,male,VS,I,29,E11,117.779296875
0,1,0,21548,3.232421875,0.126953125,5,0,14,75,16,1405.42004394531,340.916381835938,0,1,objects,big,1,1,faces,P,male,VS,I,29,E11,117.779296875
0,1,0,21553,0.44921875,0.275390625,1,1,8,40,1,974.447143554688,398.079956054688,0,1,faces,female,0,1,faces,A,male,VS,F,30,E11,121.978515625
0,1,1,21554,2.013671875,0.205078125,2,1,4,19,2,710.146057128906,164.768173217773,0,1,faces,female,0,1,faces,A,male,VS,F,30,E11,121.978515625
0,1,0,21556,2.37109375,0.212890625,3,1,2,11,4,654.747863769531,267.014984130859,0,1,faces,male,0,1,faces,A,male,VS,F,30,E11,121.978515625
1,1,1,21564,0.328125,0.1796875,1,1,14,58,2,1128.65856933594,452.199859619141,0,1,faces,female,0,1,faces,A,male,VS,I,31,E11,126.177734375
0,1,1,21566,0.765625,0.251953125,2,1,11,49,4,1090.14050292969,475.303131103516,0,1,faces,male,0,1,faces,A,male,VS,I,31,E11,126.177734375
2,1,0,21568,1.1484375,0.212890625,3,1,14,58,6,1193.60119628906,398.726226806641,0,1,faces,female,0,1,faces,A,male,VS,I,31,E11,126.177734375
0,1,0,21569,1.412109375,0.30859375,4,1,8,25,7,742.930114746094,725.739379882812,0,1,objects,big,0,1,faces,A,male,VS,I,31,E11,126.177734375
0,1,1,21570,1.765625,0.123046875,5,0,12,54,8,1054.31469726562,952.036804199219,0,1,faces,male,0,1,faces,A,male,VS,I,31,E11,126.177734375
0,1,0,21573,2.314453125,0.189453125,6,0,3,13,11,692.316528320312,472.531036376953,0,1,objects,small,0,1,faces,A,male,VS,I,31,E11,126.177734375
0,1,0,21574,2.533203125,0.138671875,7,0,6,21,12,756.860961914062,350.463195800781,0,1,faces,male,0,1,faces,A,male,VS,I,31,E11,126.177734375
0,1,0,21575,2.7109375,0.326171875,8,0,1,5,13,564.692199707031,589.71533203125,0,1,faces,male,0,1,faces,A,male,VS,I,31,E11,126.177734375
0,1,1,21578,3.7265625,0.107421875,9,0,15,76,16,1353.14428710938,452.396728515625,0,1,faces,female,0,1,faces,A,male,VS,I,31,E11,126.177734375
0,1,0,21583,0.2265625,0.26953125,1,1,9,48,1,1042.32373046875,381.928070068359,0,1,faces,female,1,1,faces,P,male,VS,F,49,E11,201.763671875
0,1,1,21585,0.62109375,0.17578125,2,1,12,64,3,1231.20263671875,185.697692871094,0,1,faces,male,1,1,faces,P,male,VS,F,49,E11,201.763671875
0,1,1,21587,1,0.166015625,3,1,7,26,5,800.065246582031,808.389404296875,0,1,faces,female,1,1,faces,P,male,VS,F,49,E11,201.763671875
0,1,0,21589,1.337890625,0.14453125,4,1,4,17,7,673.771545410156,811.933532714844,0,1,faces,female,1,1,faces,P,male,VS,F,49,E11,201.763671875
0,1,1,21592,1.763671875,0.119140625,5,0,3,13,10,656.934509277344,442.804595947266,0,1,faces,male,1,1,faces,P,male,VS,F,49,E11,201.763671875
0,1,0,21593,1.919921875,0.22265625,6,0,6,24,11,757.580444335938,639.042724609375,0,1,faces,male,1,1,faces,P,male,VS,F,49,E11,201.763671875
0,1,0,21594,2.205078125,0.177734375,7,0,10,59,12,1184.60571289062,570.061584472656,1,0,NaN,NaN,1,1,faces,P,male,VS,F,49,E11,201.763671875
0,1,0,21603,0.572265625,0.16796875,1,1,8,29,3,837.526916503906,219.650161743164,0,1,faces,male,1,0,objects,P,small,VS,O,50,E11,205.962890625
1,1,0,21604,0.76953125,0.18359375,2,1,5,19,4,769.701293945312,179.828582763672,1,0,NaN,NaN,1,0,objects,P,small,VS,O,50,E11,205.962890625
2,0,0,21606,2.484375,0.43359375,3,1,5,19,6,770.782104492188,185.514099121094,1,0,NaN,NaN,1,0,objects,P,small,VS,O,50,E11,205.962890625
0,0,0,21608,3.775390625,0.162109375,4,1,12,52,8,1070.09851074219,712.77490234375,0,1,faces,female,1,0,objects,P,small,VS,O,50,E11,205.962890625
0,1,0,21614,0.224609375,0.130859375,1,1,6,41,1,1001.13421630859,538.556640625,0,1,faces,female,0,1,faces,A,female,EX,F,51,E11,210.162109375
0,1,0,21616,0.677734375,0.458984375,2,1,1,11,3,623.738037109375,279.823394775391,0,1,objects,small,0,1,faces,A,female,EX,F,51,E11,210.162109375
0,1,0,21618,1.775390625,0.271484375,3,1,4,34,5,842.306396484375,732.392333984375,0,1,faces,female,0,1,faces,A,female,EX,F,51,E11,210.162109375
0,1,0,21619,2.0859375,0.279296875,4,1,8,45,6,971.731323242188,945.594421386719,0,1,objects,big,0,1,faces,A,female,EX,F,51,E11,210.162109375
0,1,1,21620,2.396484375,0.177734375,5,0,10,54,7,1072.39538574219,923.049255371094,0,1,faces,female,0,1,faces,A,female,EX,F,51,E11,210.162109375
0,1,1,21622,2.8046875,0.1171875,6,0,15,78,9,1336.28686523438,671.594604492188,0,1,objects,big,0,1,faces,A,female,EX,F,51,E11,210.162109375
0,1,0,21625,3.435546875,0.1796875,7,0,13,73,12,1343.30712890625,170.972579956055,0,1,faces,male,0,1,faces,A,female,EX,F,51,E11,210.162109375
0,1,0,21633,0.23046875,0.150390625,1,1,9,49,2,1049.00646972656,464.26318359375,0,1,faces,female,0,0,faces,P,female,VS,I,52,E11,214.361328125
1,1,0,21636,0.919921875,0.146484375,2,1,13,69,5,1294.28796386719,639.557006835938,0,1,faces,male,0,0,faces,P,female,VS,I,52,E11,214.361328125
0,1,0,21637,1.08984375,0.330078125,3,1,14,78,6,1334.69067382812,659.327392578125,0,1,faces,female,0,0,faces,P,female,VS,I,52,E11,214.361328125
2,1,0,21638,1.451171875,0.19921875,4,1,13,69,7,1236.12316894531,656.021301269531,0,1,faces,male,0,0,faces,P,female,VS,I,52,E11,214.361328125
0,1,0,21639,1.6875,0.25,5,0,12,62,8,1148.80419921875,873.276245117188,0,1,faces,male,0,0,faces,P,female,VS,I,52,E11,214.361328125
0,1,0,21640,1.982421875,0.15234375,6,0,15,80,9,1326.83996582031,830.051208496094,0,1,faces,male,0,0,faces,P,female,VS,I,52,E11,214.361328125
1,1,1,21641,2.697265625,0.189453125,7,0,3,17,10,659.848937988281,823.713989257812,0,1,faces,female,0,0,faces,P,female,VS,I,52,E11,214.361328125
0,1,0,21643,3.05859375,0.3203125,8,0,7,35,12,862.093933105469,841.107177734375,0,1,faces,female,0,0,faces,P,female,VS,I,52,E11,214.361328125
2,1,0,21644,3.41796875,0.1171875,9,0,3,17,13,706.538330078125,827.495544433594,0,1,faces,female,0,0,faces,P,female,VS,I,52,E11,214.361328125
3,1,0,21646,3.703125,0.154296875,10,0,3,17,15,674.116027832031,846.466247558594,0,1,faces,female,0,0,faces,P,female,VS,I,52,E11,214.361328125
0,1,0,21654,0.361328125,0.12109375,1,1,5,21,2,741.940673828125,327.785247802734,0,1,faces,male,0,1,objects,A,small,VS,O,53,E11,218.560546875
0,1,1,21655,0.55078125,0.1875,2,1,8,52,3,1063.03601074219,764.78125,0,1,objects,small,0,1,objects,A,small,VS,O,53,E11,218.560546875
0,1,0,21657,0.927734375,0.166015625,3,1,11,63,5,1188.41833496094,910.447692871094,0,1,faces,female,0,1,objects,A,small,VS,O,53,E11,218.560546875
0,1,0,21658,1.16015625,0.1796875,4,1,9,57,6,1134.18896484375,323.101257324219,0,1,faces,male,0,1,objects,A,small,VS,O,53,E11,218.560546875
0,1,0,21659,1.37109375,0.134765625,5,0,6,47,7,1044.31530761719,285.737762451172,0,1,faces,female,0,1,objects,A,small,VS,O,53,E11,218.560546875
0,1,0,21660,1.53515625,0.220703125,6,0,7,48,8,1046.60620117188,362.862915039062,0,1,objects,big,0,1,objects,A,small,VS,O,53,E11,218.560546875
0,1,1,21662,2.66796875,0.158203125,7,0,13,66,10,1276.56555175781,293.747436523438,0,1,faces,male,0,1,objects,A,small,VS,O,53,E11,218.560546875
0,1,1,21664,3.037109375,0.14453125,8,0,3,15,12,687.581726074219,635.275451660156,0,1,objects,big,0,1,objects,A,small,VS,O,53,E11,218.560546875
0,1,0,21668,3.78125,0.240234375,9,0,15,81,16,1366.70288085938,913.654113769531,0,1,faces,female,0,1,objects,A,small,VS,O,53,E11,218.560546875
0,1,0,21673,0.244140625,0.189453125,1,1,6,22,1,759.105346679688,453.179931640625,1,0,NaN,NaN,1,0,faces,P,female,VS,F,54,E11,222.759765625
1,1,0,21674,0.4765625,0.2109375,2,1,12,50,2,1050.72106933594,552.450317382812,0,1,faces,female,1,0,faces,P,female,VS,F,54,E11,222.759765625
1,1,0,21675,0.712890625,0.203125,3,1,11,49,3,1045.28161621094,475.972503662109,0,1,faces,female,1,0,faces,P,female,VS,F,54,E11,222.759765625
0,1,0,21677,1.10546875,0.142578125,4,1,5,20,5,740.854309082031,288.646606445312,0,1,faces,male,1,0,faces,P,female,VS,F,54,E11,222.759765625
0,1,0,21680,1.740234375,0.236328125,5,0,2,9,8,560.35888671875,966.258728027344,0,1,faces,male,1,0,faces,P,female,VS,F,54,E11,222.759765625
0,1,0,21681,2.044921875,0.171875,6,0,15,71,9,1258.60949707031,839.676025390625,0,1,objects,small,1,0,faces,P,female,VS,F,54,E11,222.759765625
0,1,0,21682,2.24609375,0.201171875,7,0,14,70,10,1254.48022460938,752.253540039062,0,1,faces,female,1,0,faces,P,female,VS,F,54,E11,222.759765625
0,1,0,21684,2.669921875,0.169921875,8,0,13,57,12,1125.69604492188,355.98583984375,0,1,objects,small,1,0,faces,P,female,VS,F,54,E11,222.759765625
2,1,0,21685,2.875,0.123046875,9,0,12,50,13,1042.84497070312,510.844848632812,0,1,faces,female,1,0,faces,P,female,VS,F,54,E11,222.759765625
2,1,0,21686,3.015625,0.2578125,10,0,11,49,14,1048.99206542969,478.189697265625,0,1,faces,female,1,0,faces,P,female,VS,F,54,E11,222.759765625
0,1,0,21688,3.75,0.162109375,11,0,3,12,16,691.102111816406,307.351654052734,0,1,faces,male,1,0,faces,P,female,VS,F,54,E11,222.759765625
0,0,1,21694,0.623046875,0.208984375,1,1,2,15,3,680.579467773438,686.666687011719,1,0,NaN,NaN,1,1,objects,P,small,VS,O,55,E11,226.958984375
0,0,0,21697,2.61328125,0.15234375,2,1,3,16,6,702.807006835938,693.799926757812,0,1,faces,male,1,1,objects,P,small,VS,O,55,E11,226.958984375
0,1,0,21708,0.6171875,0.126953125,1,1,6,39,4,934.785705566406,296.237915039062,0,1,faces,male,1,0,objects,P,big,VS,O,56,E11,231.158203125
1,1,1,21709,0.8125,0.232421875,2,1,11,60,5,1130.01086425781,644.225646972656,0,1,objects,big,1,0,objects,P,big,VS,O,56,E11,231.158203125
1,1,0,21711,1.275390625,0.140625,3,1,2,15,7,615.986083984375,638.343444824219,0,1,objects,small,1,0,objects,P,big,VS,O,56,E11,231.158203125
2,1,1,21712,1.470703125,0.162109375,4,1,11,60,8,1187.48156738281,619.64599609375,0,1,objects,big,1,0,objects,P,big,VS,O,56,E11,231.158203125
2,1,1,21714,1.974609375,0.248046875,5,0,2,15,10,620.175903320312,622.826843261719,0,1,objects,small,1,0,objects,P,big,VS,O,56,E11,231.158203125
0,1,0,21716,2.431640625,0.19921875,6,0,12,64,12,1228.58923339844,180.983276367188,0,1,faces,female,1,0,objects,P,big,VS,O,56,E11,231.158203125
0,1,0,21717,2.70703125,0.18359375,7,0,14,80,13,1312.85717773438,880.946472167969,1,0,NaN,NaN,1,0,objects,P,big,VS,O,56,E11,231.158203125
3,1,1,21720,3.2265625,0.142578125,8,0,11,60,16,1191.46398925781,645.788146972656,0,1,objects,big,1,0,objects,P,big,VS,O,56,E11,231.158203125
0,1,0,21728,0.349609375,0.162109375,1,1,7,31,2,825.056762695312,411.933868408203,0,1,faces,male,0,0,faces,A,female,EX,I,57,E11,235.357421875
0,1,0,21729,0.53125,0.150390625,2,1,6,30,3,841.551391601562,371.855163574219,0,1,objects,small,0,0,faces,A,female,EX,I,57,E11,235.357421875
0,1,0,21730,0.73046875,0.44921875,3,1,11,65,4,1232.11389160156,289.433258056641,0,1,objects,big,0,0,faces,A,female,EX,I,57,E11,235.357421875
0,1,0,21732,2.046875,0.197265625,4,1,4,24,6,763.0322265625,652.872009277344,0,1,faces,female,0,0,faces,A,female,EX,I,57,E11,235.357421875
0,1,0,21733,2.28125,0.14453125,5,0,5,26,7,789.3466796875,881.246704101562,0,1,objects,small,0,0,faces,A,female,EX,I,57,E11,235.357421875
0,1,1,21746,0.71484375,0.17578125,1,1,1,1,3,546.674560546875,187.831756591797,0,1,faces,male,0,1,faces,A,male,VS,F,58,E11,239.556640625
0,1,0,21748,1.060546875,0.20703125,2,1,5,15,5,682.037292480469,662.9482421875,0,1,faces,male,0,1,faces,A,male,VS,F,58,E11,239.556640625
0,1,0,21749,1.29296875,0.119140625,3,1,6,24,6,742.318054199219,652.807312011719,0,1,faces,female,0,1,faces,A,male,VS,F,58,E11,239.556640625
0,1,1,21750,1.451171875,0.396484375,4,1,7,43,7,942.766235351562,743.236694335938,0,1,faces,male,0,1,faces,A,male,VS,F,58,E11,239.556640625
0,1,0,21752,1.98046875,0.12109375,5,0,8,52,9,1049.14379882812,739.795104980469,0,1,objects,small,0,1,faces,A,male,VS,F,58,E11,239.556640625
0,1,1,21753,2.140625,0.166015625,6,0,11,62,10,1166.55334472656,844.153747558594,0,1,faces,male,0,1,faces,A,male,VS,F,58,E11,239.556640625
0,1,1,21755,2.453125,0.1796875,7,0,12,65,12,1215.99243164062,277.902923583984,0,1,faces,male,0,1,faces,A,male,VS,F,58,E11,239.556640625
0,1,0,21757,2.865234375,0.11328125,8,0,14,74,14,1313.27978515625,246.592987060547,0,1,faces,female,0,1,faces,A,male,VS,F,58,E11,239.556640625
0,1,0,21758,3.03125,0.134765625,9,0,10,58,15,1124.7080078125,394.708801269531,0,1,faces,female,0,1,faces,A,male,VS,F,58,E11,239.556640625
0,1,0,21759,3.212890625,0.263671875,10,0,2,4,16,539.087951660156,407.907073974609,0,1,objects,small,0,1,faces,A,male,VS,F,58,E11,239.556640625
0,1,0,21760,3.509765625,0.328125,11,0,4,12,17,629.668334960938,346.227111816406,0,1,faces,female,0,1,faces,A,male,VS,F,58,E11,239.556640625
0,1,1,21771,0.5625,0.140625,1,1,11,54,3,1081.7314453125,930.761047363281,0,1,objects,small,0,1,objects,A,big,VS,O,59,E11,243.755859375
1,1,0,21773,0.8359375,0.275390625,2,1,8,24,5,712.368408203125,619.144165039062,0,1,objects,big,0,1,objects,A,big,VS,O,59,E11,243.755859375
1,1,0,21774,1.171875,0.181640625,3,1,2,2,6,583.35791015625,253.379425048828,0,1,objects,small,0,1,objects,A,big,VS,O,59,E11,243.755859375
0,1,0,21775,1.388671875,0.140625,4,1,1,1,7,534.223083496094,180.450881958008,0,1,faces,female,0,1,objects,A,big,VS,O,59,E11,243.755859375
2,1,0,21776,1.548828125,1.1015625,5,0,2,2,8,536.215698242188,242.871643066406,0,1,objects,small,0,1,objects,A,big,VS,O,59,E11,243.755859375
0,1,0,21778,3.013671875,0.119140625,6,0,15,75,10,1380.25415039062,361.958343505859,0,1,faces,female,0,1,objects,A,big,VS,O,59,E11,243.755859375
2,1,0,21780,3.46484375,0.3125,7,0,8,24,12,749.541625976562,654.301025390625,0,1,objects,big,0,1,objects,A,big,VS,O,59,E11,243.755859375
0,1,0,21786,0.259765625,0.2734375,1,1,8,33,2,834.451538085938,643.260498046875,0,1,faces,female,0,1,faces,A,female,VS,I,60,E11,247.955078125
0,1,0,21787,0.587890625,0.17578125,2,1,13,53,3,1061.29479980469,826.892028808594,0,1,faces,female,0,1,faces,A,female,VS,I,60,E11,247.955078125
0,1,0,21788,0.84375,0.212890625,3,1,15,70,4,1258.05261230469,735.521667480469,0,1,objects,big,0,1,faces,A,female,VS,I,60,E11,247.955078125
0,1,0,21789,1.115234375,0.203125,4,1,2,8,5,559.108215332031,864.716491699219,0,1,faces,male,0,1,faces,A,female,VS,I,60,E11,247.955078125
0,1,0,21790,1.341796875,0.181640625,5,0,3,9,6,547.029541015625,948.656921386719,0,1,faces,female,0,1,faces,A,female,VS,I,60,E11,247.955078125
0,1,0,21791,1.587890625,0.240234375,6,0,5,13,7,643.273315429688,449.218872070312,0,1,faces,male,0,1,faces,A,female,VS,I,60,E11,247.955078125
0,1,0,21793,2.046875,0.142578125,7,0,7,29,9,834.948974609375,268.750549316406,0,1,faces,male,0,1,faces,A,female,VS,I,60,E11,247.955078125
0,1,0,21794,2.224609375,0.220703125,8,0,10,39,10,959.046447753906,374.650756835938,0,1,faces,female,0,1,faces,A,female,VS,I,60,E11,247.955078125
0,1,1,21795,2.48046875,0.318359375,9,0,12,49,11,1064.44311523438,453.742523193359,0,1,faces,female,0,1,faces,A,female,VS,I,60,E11,247.955078125
0,1,0,21797,3.150390625,0.251953125,10,0,11,46,13,1081.60681152344,182.620223999023,0,1,objects,big,0,1,faces,A,female,VS,I,60,E11,247.955078125
0,1,0,21803,0.19921875,0.189453125,1,1,1,3,1,579.442626953125,329.975982666016,0,1,objects,big,0,1,faces,A,female,VS,F,61,E11,252.154296875
0,1,0,21804,0.423828125,0.224609375,2,1,2,4,2,520.335876464844,422.971771240234,0,1,faces,male,0,1,faces,A,female,VS,F,61,E11,252.154296875
0,1,0,21805,0.6875,0.267578125,3,1,4,22,3,726.230163574219,443.965759277344,0,1,faces,female,0,1,faces,A,female,VS,F,61,E11,252.154296875
0,1,0,21806,1.0078125,0.220703125,4,1,5,25,4,725.006896972656,737.786376953125,0,1,faces,female,0,1,faces,A,female,VS,F,61,E11,252.154296875
0,1,0,21807,1.2578125,0.15625,5,0,3,16,5,634.850646972656,740.517211914062,0,1,faces,male,0,1,faces,A,female,VS,F,61,E11,252.154296875
0,1,0,21808,1.453125,0.263671875,6,0,7,34,6,842.784790039062,749.939697265625,0,1,faces,male,0,1,faces,A,female,VS,F,61,E11,252.154296875
0,1,1,21809,1.791015625,0.158203125,7,0,11,65,7,1265.13708496094,275.063659667969,0,1,objects,big,0,1,faces,A,female,VS,F,61,E11,252.154296875
0,1,0,21811,2.30078125,0.44140625,8,0,10,64,9,1225.32263183594,149.376388549805,0,1,faces,female,0,1,faces,A,female,VS,F,61,E11,252.154296875
0,1,0,21812,2.7734375,0.283203125,9,0,12,73,10,1340.70361328125,167.042663574219,0,1,faces,female,0,1,faces,A,female,VS,F,61,E11,252.154296875
0,1,1,21813,3.099609375,0.162109375,10,0,14,75,11,1328.55700683594,328.958190917969,0,1,objects,small,0,1,faces,A,female,VS,F,61,E11,252.154296875
0,1,0,21815,3.515625,0.166015625,11,0,13,74,13,1316.314453125,259.146636962891,0,1,faces,female,0,1,faces,A,female,VS,F,61,E11,252.154296875
0,1,1,21827,0.904296875,0.197265625,1,1,7,30,1,889.09228515625,361.443542480469,0,1,faces,male,0,1,faces,A,male,EX,I,62,E11,256.353515625
0,1,0,21830,1.81640625,0.115234375,2,1,3,14,4,647.581176757812,503.536712646484,0,1,faces,male,0,1,faces,A,male,EX,I,62,E11,256.353515625
0,1,0,21832,3.130859375,0.13671875,3,1,8,35,6,857.814514160156,845.34228515625,0,1,objects,small,0,1,faces,A,male,EX,I,62,E11,256.353515625
0,1,0,21833,3.3046875,0.306640625,4,1,5,25,7,725.240173339844,733.758117675781,0,1,faces,female,0,1,faces,A,male,EX,I,62,E11,256.353515625
0,1,0,21834,3.72265625,0.103515625,5,0,6,29,8,865.818664550781,194.707855224609,0,1,faces,female,0,1,faces,A,male,EX,I,62,E11,256.353515625
0,1,0,21844,0.20703125,0.21484375,1,1,3,15,1,628.656066894531,620.583251953125,0,1,faces,male,0,0,objects,A,big,EX,O,63,E11,260.552734375
0,1,0,21848,3.275390625,0.291015625,2,1,14,70,5,1241.29443359375,736.985656738281,0,1,faces,male,0,0,objects,A,big,EX,O,63,E11,260.552734375
0,1,0,21849,3.6015625,0.283203125,3,1,15,79,6,1345.99072265625,721.42138671875,0,1,faces,female,0,0,objects,A,big,EX,O,63,E11,260.552734375
0,1,0,21862,0.345703125,0.169921875,1,1,3,22,2,714.838989257812,439.745025634766,0,1,objects,small,1,1,faces,P,male,VS,F,64,E11,264.751953125
0,1,1,21863,0.560546875,0.13671875,2,1,7,44,3,1008.64953613281,838.854675292969,0,1,faces,female,1,1,faces,P,male,VS,F,64,E11,264.751953125
0,1,1,21868,1.43359375,0.150390625,3,1,14,70,8,1226.23583984375,726.054748535156,0,1,faces,male,1,1,faces,P,male,VS,F,64,E11,264.751953125
0,1,1,21869,1.65625,0.126953125,4,1,13,64,9,1222.7255859375,179.06982421875,0,1,faces,female,1,1,faces,P,male,VS,F,64,E11,264.751953125
0,1,0,21871,2.009765625,0.271484375,5,0,11,55,11,1117.90783691406,167.240875244141,0,1,faces,female,1,1,faces,P,male,VS,F,64,E11,264.751953125
0,1,0,21873,2.759765625,0.107421875,6,0,9,47,13,1010.61804199219,279.00732421875,0,1,faces,male,1,1,faces,P,male,VS,F,64,E11,264.751953125
0,0,0,21874,2.89453125,0.396484375,7,0,8,46,14,1024.45703125,167.210922241211,1,0,NaN,NaN,1,1,faces,P,male,VS,F,64,E11,264.751953125
0,1,0,21883,0.49609375,0.123046875,1,1,4,14,3,629.623657226562,516.639526367188,0,1,faces,female,1,1,objects,P,small,VS,O,65,E11,268.951171875
0,1,0,21886,0.95703125,0.208984375,2,1,6,27,6,740.948364257812,938.049377441406,0,1,objects,small,1,1,objects,P,small,VS,O,65,E11,268.951171875
0,1,0,21887,1.228515625,0.189453125,3,1,10,52,7,1066.62719726562,749.863403320312,0,1,objects,big,1,1,objects,P,small,VS,O,65,E11,268.951171875
0,1,0,21890,1.7578125,0.185546875,4,1,13,71,10,1266.51098632812,871.535217285156,1,0,NaN,NaN,1,1,objects,P,small,VS,O,65,E11,268.951171875
0,1,0,21897,0.2109375,0.197265625,1,1,5,31,1,813.389770507812,436.180450439453,0,1,objects,small,0,0,objects,A,small,EX,O,66,E11,273.150390625
0,1,0,21900,1.34375,0.107421875,2,1,9,54,4,1107.44555664062,901.83056640625,0,1,faces,female,0,0,objects,A,small,EX,O,66,E11,273.150390625
0,1,1,21901,2.515625,0.189453125,3,1,3,15,5,623.426330566406,599.280883789062,0,1,objects,big,0,0,objects,A,small,EX,O,66,E11,273.150390625
0,1,0,21903,3.49609375,0.2578125,4,1,1,5,7,513.27392578125,529.445129394531,0,1,faces,male,0,0,objects,A,small,EX,O,66,E11,273.150390625
0,1,0,21915,0.400390625,0.1875,1,1,5,42,1,987.711608886719,609.323181152344,0,1,faces,male,0,0,faces,P,male,VS,F,67,E11,277.349609375
0,1,1,21916,0.650390625,0.2578125,2,1,1,2,2,516.503479003906,288.389739990234,0,1,faces,female,0,0,faces,P,male,VS,F,67,E11,277.349609375
0,1,0,21920,1.50390625,0.220703125,3,1,10,60,6,1154.31823730469,599.542175292969,0,1,objects,small,0,0,faces,P,male,VS,F,67,E11,277.349609375
0,1,0,21921,1.75390625,0.205078125,4,1,14,69,7,1241.52099609375,639.470153808594,0,1,faces,male,0,0,faces,P,male,VS,F,67,E11,277.349609375
0,1,0,21922,1.98828125,0.1484375,5,0,13,68,8,1235.26879882812,546.939392089844,0,1,faces,female,0,0,faces,P,male,VS,F,67,E11,277.349609375
0,1,1,21923,2.173828125,0.12890625,6,0,12,66,9,1262.72277832031,376.635467529297,0,1,faces,male,0,0,faces,P,male,VS,F,67,E11,277.349609375
0,1,0,21925,2.537109375,0.24609375,7,0,11,64,11,1267.80615234375,165.387481689453,0,1,faces,female,0,0,faces,P,male,VS,F,67,E11,277.349609375
0,1,0,21926,3.482421875,0.353515625,8,0,9,54,12,1051.01940917969,948.958068847656,0,1,faces,male,0,0,faces,P,male,VS,F,67,E11,277.349609375
0,1,0,21939,1.087890625,0.12109375,1,1,10,40,2,970.34423828125,418.084625244141,0,1,faces,female,0,1,faces,P,female,VS,I,68,E11,281.548828125
0,1,0,21940,1.25,0.142578125,2,1,8,29,3,830.373901367188,263.617614746094,0,1,faces,male,0,1,faces,P,female,VS,I,68,E11,281.548828125
0,1,1,21949,0.189453125,0.21484375,1,1,9,32,1,811.440856933594,527.844055175781,0,1,faces,female,0,0,faces,A,male,VS,I,69,E11,285.748046875
1,1,0,21951,0.58984375,0.1328125,2,1,11,34,3,821.299865722656,751.630737304688,0,1,faces,female,0,0,faces,A,male,VS,I,69,E11,285.748046875
0,1,1,21952,0.755859375,0.251953125,3,1,7,26,4,745.24853515625,795.154357910156,0,1,faces,female,0,0,faces,A,male,VS,I,69,E11,285.748046875
0,1,1,21956,1.55078125,0.27734375,4,1,3,11,8,650.163330078125,259.790191650391,0,1,faces,male,0,0,faces,A,male,VS,I,69,E11,285.748046875
0,1,0,21959,2.115234375,0.2109375,5,0,1,1,11,539.531433105469,163.479217529297,0,1,faces,male,0,0,faces,A,male,VS,I,69,E11,285.748046875
0,1,0,21960,2.361328125,0.234375,6,0,4,19,12,738.231262207031,170.741836547852,0,1,faces,male,0,0,faces,A,male,VS,I,69,E11,285.748046875
2,1,0,21961,2.669921875,0.142578125,7,0,11,34,13,888.692749023438,751.311401367188,0,1,faces,female,0,0,faces,A,male,VS,I,69,E11,285.748046875
0,1,0,21967,0.201171875,0.12890625,1,1,6,30,1,844.174682617188,358.244781494141,0,1,objects,big,0,1,faces,P,male,VS,I,70,E11,289.947265625
1,1,1,21969,0.5,0.16015625,2,1,4,19,3,747.555725097656,126.94164276123,0,1,faces,male,0,1,faces,P,male,VS,I,70,E11,289.947265625
0,1,0,21971,1.26953125,0.294921875,3,1,8,46,5,1018.04809570312,159.496719360352,0,1,faces,female,0,1,faces,P,male,VS,I,70,E11,289.947265625
0,1,0,21972,1.607421875,0.287109375,4,1,13,74,6,1324.72216796875,246.272506713867,0,1,faces,male,0,1,faces,P,male,VS,I,70,E11,289.947265625
2,1,0,21973,1.943359375,0.169921875,5,0,4,19,7,714.148193359375,155.132537841797,0,1,faces,male,0,1,faces,P,male,VS,I,70,E11,289.947265625
0,1,0,21976,3.48046875,0.16015625,6,0,14,79,10,1367.93090820312,743.145874023438,0,1,faces,female,0,1,faces,P,male,VS,I,70,E11,289.947265625
0,1,1,21977,3.697265625,0.1015625,7,0,11,63,11,1171.75280761719,984.9326171875,0,1,faces,female,0,1,faces,P,male,VS,I,70,E11,289.947265625
1,1,0,21986,0.3828125,0.263671875,1,1,9,50,2,1029.89501953125,545.07568359375,0,1,faces,female,0,1,faces,A,male,EX,F,71,E11,294.146484375
0,1,0,21987,0.701171875,0.166015625,2,1,4,21,3,780.256042480469,290.960418701172,0,1,faces,male,0,1,faces,A,male,EX,F,71,E11,294.146484375
0,1,0,21989,1.939453125,0.201171875,3,1,13,70,5,1248.22216796875,749.550231933594,0,1,faces,male,0,1,faces,A,male,EX,F,71,E11,294.146484375
0,1,0,21990,2.181640625,0.19140625,4,1,15,81,6,1375.94274902344,952.307373046875,0,1,faces,male,0,1,faces,A,male,EX,F,71,E11,294.146484375
2,1,1,21992,3.30078125,0.2109375,5,0,9,50,8,1021.61499023438,579.678771972656,0,1,faces,female,0,1,faces,A,male,EX,F,71,E11,294.146484375
0,1,0,21994,3.828125,0.16796875,6,0,3,20,10,766.298706054688,262.428070068359,0,1,faces,female,0,1,faces,A,male,EX,F,71,E11,294.146484375
1,1,0,22005,0.421875,0.154296875,1,1,8,49,2,1043.82739257812,439.660797119141,0,1,faces,female,0,1,faces,P,male,VS,I,72,E11,298.345703125
0,1,1,22006,0.625,0.1328125,2,1,6,37,3,962.107849121094,129.531860351562,0,1,faces,male,0,1,faces,P,male,VS,I,72,E11,298.345703125
0,1,0,22009,1.169921875,0.1328125,3,1,11,62,6,1162.52661132812,832.120666503906,0,1,objects,small,0,1,faces,P,male,VS,I,72,E11,298.345703125
0,1,0,22010,1.359375,0.181640625,4,1,5,31,7,857.12158203125,411.680938720703,0,1,faces,female,0,1,faces,P,male,VS,I,72,E11,298.345703125
0,1,1,22012,1.748046875,0.244140625,5,0,2,14,9,629.0556640625,561.78564453125,0,1,objects,small,0,1,faces,P,male,VS,I,72,E11,298.345703125
0,1,0,22014,2.1796875,0.255859375,6,0,10,58,11,1118.24609375,448.370574951172,0,1,objects,small,0,1,faces,P,male,VS,I,72,E11,298.345703125
2,1,0,22015,3.025390625,0.287109375,7,0,8,49,12,1029.37719726562,461.043090820312,0,1,faces,female,0,1,faces,P,male,VS,I,72,E11,298.345703125
0,1,0,22017,3.544921875,0.22265625,8,0,3,17,14,640.809509277344,824.237060546875,0,1,objects,big,0,1,faces,P,male,VS,I,72,E11,298.345703125
0,1,0,22018,3.82421875,0.244140625,9,0,7,43,15,957.236755371094,719.080078125,0,1,faces,male,0,1,faces,P,male,VS,I,72,E11,298.345703125
0,1,0,22173,0.30078125,0.19140625,1,1,8,40,1,950.28662109375,490.066925048828,0,1,faces,male,0,1,objects,P,small,VS,O,73,E11,302.544921875
0,1,0,22175,0.705078125,0.162109375,2,1,9,41,3,987.107421875,559.962524414062,0,1,faces,male,0,1,objects,P,small,VS,O,73,E11,302.544921875
0,1,1,22176,0.931640625,0.140625,3,1,4,15,4,676.425537109375,684.817443847656,0,1,objects,small,0,1,objects,P,small,VS,O,73,E11,302.544921875
0,1,1,22178,1.318359375,0.158203125,4,1,10,49,6,1024.08203125,482.785919189453,0,1,objects,big,0,1,objects,P,small,VS,O,73,E11,302.544921875
0,1,0,22185,0.39453125,0.166015625,1,1,6,31,2,850.325988769531,420.419342041016,0,1,faces,male,0,1,objects,A,small,VS,O,74,E11,306.744140625
0,1,0,22187,0.6796875,0.19921875,2,1,4,28,4,830.728576660156,178.86247253418,0,1,objects,small,0,1,objects,A,small,VS,O,74,E11,306.744140625
0,1,0,22188,0.953125,0.169921875,3,1,9,35,5,829.811889648438,869.937561035156,0,1,faces,female,0,1,objects,A,small,VS,O,74,E11,306.744140625
0,1,0,22189,1.158203125,0.193359375,4,1,7,33,6,857.373901367188,676.614440917969,0,1,objects,big,0,1,objects,A,small,VS,O,74,E11,306.744140625
0,1,0,22191,1.626953125,0.32421875,5,0,14,71,8,1276.16772460938,848.299682617188,0,1,objects,big,0,1,objects,A,small,VS,O,74,E11,306.744140625
0,1,0,22192,1.98828125,0.203125,6,0,13,69,9,1230.63000488281,630.038696289062,0,1,faces,female,0,1,objects,A,small,VS,O,74,E11,306.744140625
0,1,0,22193,2.23046875,0.10546875,7,0,12,59,10,1142.98364257812,553.672180175781,0,1,faces,female,0,1,objects,A,small,VS,O,74,E11,306.744140625
0,1,0,22195,2.55078125,0.349609375,8,0,1,7,12,541.404663085938,759.361877441406,0,1,objects,small,0,1,objects,A,small,VS,O,74,E11,306.744140625
0,1,0,22196,2.96875,0.287109375,9,0,3,11,13,632.856079101562,279.473602294922,0,1,objects,small,0,1,objects,A,small,VS,O,74,E11,306.744140625
0,1,0,22197,3.33203125,0.173828125,10,0,2,9,14,566.800354003906,967.919860839844,0,1,faces,male,0,1,objects,A,small,VS,O,74,E11,306.744140625
0,1,0,22198,3.568359375,0.173828125,11,0,11,45,15,951.581665039062,953.5478515625,0,1,faces,male,0,1,objects,A,small,VS,O,74,E11,306.744140625
0,1,0,22199,3.779296875,0.158203125,12,0,8,34,16,905.434997558594,745.732666015625,0,1,faces,female,0,1,objects,A,small,VS,O,74,E11,306.744140625
1,1,0,22209,0.2421875,0.142578125,1,1,6,30,1,847.214721679688,356.837493896484,0,1,faces,female,0,1,objects,A,big,VS,O,75,E11,310.943359375
0,1,0,22210,0.4375,0.16796875,2,1,9,43,2,923.591735839844,762.457458496094,0,1,objects,small,0,1,objects,A,big,VS,O,75,E11,310.943359375
1,1,0,22212,0.7578125,0.255859375,3,1,12,67,4,1255.16027832031,459.829803466797,0,1,objects,big,0,1,objects,A,big,VS,O,75,E11,310.943359375
1,1,0,22213,1.072265625,0.15234375,4,1,8,37,5,980.266723632812,139.28450012207,0,1,objects,small,0,1,objects,A,big,VS,O,75,E11,310.943359375
0,1,0,22214,1.255859375,0.16796875,5,0,5,28,6,848.982482910156,163.768844604492,0,1,faces,male,0,1,objects,A,big,VS,O,75,E11,310.943359375
2,1,0,22215,1.458984375,0.11328125,6,0,8,37,7,963.747497558594,162.458999633789,0,1,objects,small,0,1,objects,A,big,VS,O,75,E11,310.943359375
0,1,0,22216,1.634765625,0.201171875,7,0,1,1,8,532.512390136719,167.618301391602,0,1,faces,male,0,1,objects,A,big,VS,O,75,E11,310.943359375
0,1,0,22217,1.95703125,0.154296875,8,0,15,81,9,1323.92724609375,960.554016113281,0,1,faces,female,0,1,objects,A,big,VS,O,75,E11,310.943359375
0,1,0,22219,2.37109375,0.12890625,9,0,7,34,11,869.008422851562,725.298522949219,0,1,faces,male,0,1,objects,A,big,VS,O,75,E11,310.943359375
2,1,0,22221,2.884765625,0.166015625,10,0,6,30,13,838.201354980469,367.994110107422,0,1,faces,female,0,1,objects,A,big,VS,O,75,E11,310.943359375
2,1,0,22222,3.11328125,0.1328125,11,0,12,67,14,1246.23413085938,481.645538330078,0,1,objects,big,0,1,objects,A,big,VS,O,75,E11,310.943359375
0,1,0,22231,0.412109375,0.158203125,1,1,5,20,2,721.829528808594,285.476531982422,0,1,faces,female,0,0,faces,P,female,VS,F,76,E11,315.142578125
0,1,1,22234,1.177734375,0.1171875,2,1,2,5,5,609.156555175781,522.61279296875,0,1,faces,male,0,0,faces,P,female,VS,F,76,E11,315.142578125
0,1,0,22236,1.63671875,0.27734375,3,1,6,23,7,742.176696777344,569.756164550781,0,1,faces,male,0,0,faces,P,female,VS,F,76,E11,315.142578125
0,1,0,22238,2.19921875,0.150390625,4,1,7,27,9,748.937805175781,951.482727050781,0,1,faces,female,0,0,faces,P,female,VS,F,76,E11,315.142578125
0,1,0,22240,2.537109375,0.125,5,0,10,42,11,950.177673339844,638.377868652344,0,1,objects,big,0,0,faces,P,female,VS,F,76,E11,315.142578125
0,1,0,22241,2.705078125,0.212890625,6,0,12,70,12,1274.79577636719,738.427185058594,0,1,faces,male,0,0,faces,P,female,VS,F,76,E11,315.142578125
0,1,0,22242,2.96875,0.24609375,7,0,14,76,13,1334.07177734375,461.274200439453,0,1,faces,male,0,0,faces,P,female,VS,F,76,E11,315.142578125
0,1,0,22243,3.255859375,0.50390625,8,0,13,73,14,1342.38659667969,174.986892700195,0,1,faces,male,0,0,faces,P,female,VS,F,76,E11,315.142578125
0,1,0,22254,1.111328125,0.28125,1,1,4,17,3,661.557800292969,871.501403808594,0,1,faces,male,0,1,faces,A,female,VS,I,77,E11,319.341796875
0,1,0,22256,1.595703125,0.181640625,2,1,8,45,5,961.933715820312,958.955627441406,0,1,faces,male,0,1,faces,A,female,VS,I,77,E11,319.341796875
0,1,0,22257,1.814453125,0.236328125,3,1,10,63,6,1177.72119140625,955.115112304688,0,1,faces,female,0,1,faces,A,female,VS,I,77,E11,319.341796875
0,1,0,22258,2.087890625,0.109375,4,1,13,72,7,1285.79577636719,946.948303222656,0,1,objects,big,0,1,faces,A,female,VS,I,77,E11,319.341796875
0,1,0,22259,2.2265625,0.236328125,5,0,15,81,8,1362.00573730469,946.182556152344,0,1,faces,female,0,1,faces,A,female,VS,I,77,E11,319.341796875
0,1,1,22260,2.5234375,0.169921875,6,0,14,76,9,1323.74304199219,433.385162353516,0,1,faces,female,0,1,faces,A,female,VS,I,77,E11,319.341796875
0,1,0,22262,2.87109375,0.26171875,7,0,7,40,11,924.803588867188,471.832336425781,0,1,objects,small,0,1,faces,A,female,VS,I,77,E11,319.341796875
0,1,0,22263,3.16015625,0.216796875,8,0,5,31,12,833.651489257812,473.415985107422,0,1,faces,female,0,1,faces,A,female,VS,I,77,E11,319.341796875
0,1,0,22272,0.763671875,0.166015625,1,1,3,10,1,675.122680664062,184.51318359375,0,1,faces,female,0,1,faces,A,female,EX,F,78,E11,323.541015625
0,1,0,22277,3.216796875,0.244140625,2,1,6,33,6,872.312316894531,638.482055664062,0,1,objects,small,0,1,faces,A,female,EX,F,78,E11,323.541015625
0,1,0,22286,0.39453125,0.20703125,1,1,3,20,2,804.735107421875,276.887512207031,0,1,objects,small,1,1,objects,P,small,VS,O,79,E11,327.740234375
0,0,1,22289,1.013671875,0.267578125,2,1,5,25,5,769.93359375,743.116577148438,1,0,NaN,NaN,1,1,objects,P,small,VS,O,79,E11,327.740234375
1,1,0,22300,0.35546875,0.158203125,1,1,9,38,3,955.807800292969,195.380920410156,0,1,faces,male,0,1,objects,P,big,VS,O,80,E11,331.939453125
0,1,0,22301,0.533203125,0.111328125,2,1,8,37,4,932.042053222656,167.135192871094,0,1,objects,small,0,1,objects,P,big,VS,O,80,E11,331.939453125
0,1,0,22304,1.033203125,0.208984375,3,1,2,9,7,598.569274902344,946.5087890625,0,1,objects,big,0,1,objects,P,big,VS,O,80,E11,331.939453125
0,1,0,22305,1.318359375,0.181640625,4,1,13,72,8,1297.64978027344,921.119873046875,0,1,faces,male,0,1,objects,P,big,VS,O,80,E11,331.939453125
0,1,0,22306,1.533203125,0.125,5,0,15,80,9,1389.54565429688,821.975891113281,0,1,objects,small,0,1,objects,P,big,VS,O,80,E11,331.939453125
0,1,0,22307,1.724609375,0.177734375,6,0,12,66,10,1286.13830566406,374.438873291016,0,1,faces,male,0,1,objects,P,big,VS,O,80,E11,331.939453125
2,1,0,22308,1.943359375,0.275390625,7,0,9,38,11,987.391052246094,285.638763427734,0,1,faces,male,0,1,objects,P,big,VS,O,80,E11,331.939453125
0,1,0,22311,2.619140625,0.126953125,8,0,7,24,14,713.298461914062,654.528259277344,0,1,objects,small,0,1,objects,P,big,VS,O,80,E11,331.939453125
0,1,0,22312,2.779296875,0.126953125,9,0,4,14,15,683.146240234375,545.114624023438,0,1,faces,female,0,1,objects,P,big,VS,O,80,E11,331.939453125
0,1,1,22319,0.365234375,0.384765625,1,1,6,30,2,870.558532714844,304.264404296875,0,1,objects,small,0,1,faces,A,female,EX,I,81,E11,336.138671875
0,1,0,22321,2.0546875,0.376953125,2,1,10,53,4,1092.494140625,833.406677246094,0,1,objects,big,0,1,faces,A,female,EX,I,81,E11,336.138671875
0,1,0,22322,3.27734375,0.208984375,3,1,12,58,5,1150.78198242188,488.35302734375,0,1,objects,big,0,1,faces,A,female,EX,I,81,E11,336.138671875
0,1,1,22323,3.5234375,0.13671875,4,1,13,60,6,1195.27233886719,669.803588867188,0,1,faces,female,0,1,faces,A,female,EX,I,81,E11,336.138671875
0,1,0,22330,0.220703125,0.15625,1,1,9,50,1,1039.96691894531,491.880310058594,0,1,faces,female,1,0,faces,P,female,VS,F,82,E11,340.337890625
0,1,0,22333,1.076171875,0.201171875,2,1,8,48,4,1041.28186035156,368.043914794922,0,1,faces,female,1,0,faces,P,female,VS,F,82,E11,340.337890625
0,1,0,22334,1.322265625,0.37109375,3,1,4,23,5,747.679626464844,537.794006347656,0,1,faces,male,1,0,faces,P,female,VS,F,82,E11,340.337890625
0,1,0,22335,1.759765625,0.166015625,4,1,2,9,6,587.673583984375,893.000732421875,0,1,objects,big,1,0,faces,P,female,VS,F,82,E11,340.337890625
0,1,0,22339,2.287109375,0.18359375,5,0,11,54,10,1076.49731445312,943.240966796875,0,1,faces,female,1,0,faces,P,female,VS,F,82,E11,340.337890625
1,1,0,22340,2.5078125,0.15234375,6,0,14,61,11,1155.36083984375,752.608276367188,1,0,NaN,NaN,1,0,faces,P,female,VS,F,82,E11,340.337890625
0,1,0,22341,2.697265625,0.15234375,7,0,15,79,12,1367.84985351562,743.153503417969,0,1,faces,male,1,0,faces,P,female,VS,F,82,E11,340.337890625
2,0,0,22342,2.88671875,0.791015625,8,0,14,61,13,1155.57238769531,730.474304199219,1,0,NaN,NaN,1,0,faces,P,female,VS,F,82,E11,340.337890625
0,1,0,22351,0.3984375,0.142578125,1,1,8,31,2,857.146423339844,461.377502441406,0,1,objects,small,0,1,faces,A,male,VS,I,83,E11,344.537109375
1,1,1,22354,0.974609375,0.197265625,2,1,15,75,5,1377.96008300781,362.158966064453,0,1,faces,male,0,1,faces,A,male,VS,I,83,E11,344.537109375
2,1,0,22357,1.6796875,0.22265625,3,1,15,75,8,1348.44323730469,329.641723632812,0,1,faces,male,0,1,faces,A,male,VS,I,83,E11,344.537109375
1,1,0,22358,1.974609375,0.1484375,4,1,6,24,9,724.883605957031,591.338684082031,0,1,faces,female,0,1,faces,A,male,VS,I,83,E11,344.537109375
0,1,0,22359,2.158203125,0.208984375,5,0,3,13,10,663.554748535156,479.279937744141,0,1,faces,female,0,1,faces,A,male,VS,I,83,E11,344.537109375
2,1,0,22361,2.5234375,0.146484375,6,0,6,24,12,760.942504882812,679.956970214844,0,1,faces,female,0,1,faces,A,male,VS,I,83,E11,344.537109375
1,1,0,22362,2.7109375,0.240234375,7,0,12,54,13,1051.92919921875,900.303771972656,0,1,faces,male,0,1,faces,A,male,VS,I,83,E11,344.537109375
0,1,0,22363,2.984375,0.162109375,8,0,10,52,14,1058.80603027344,757.318725585938,0,1,faces,male,0,1,faces,A,male,VS,I,83,E11,344.537109375
2,1,1,22364,3.181640625,0.19140625,9,0,12,54,15,1096.98559570312,990.490600585938,0,1,faces,male,0,1,faces,A,male,VS,I,83,E11,344.537109375
0,1,0,22366,3.5078125,0.212890625,10,0,4,18,17,681.70068359375,968.408325195312,0,1,faces,female,0,1,faces,A,male,VS,I,83,E11,344.537109375
0,1,0,22372,0.22265625,0.2265625,1,1,2,22,1,741.855041503906,476.180480957031,0,1,objects,big,0,1,objects,A,small,EX,O,84,E11,348.736328125
0,1,1,22373,0.505859375,0.16015625,2,1,15,77,2,1314.43212890625,524.43359375,0,1,objects,small,0,1,objects,A,small,EX,O,84,E11,348.736328125
0,1,0,22377,2.029296875,0.169921875,3,1,9,54,6,1021.01129150391,956.020202636719,0,1,objects,big,0,1,objects,A,small,EX,O,84,E11,348.736328125
0,1,0,22378,2.2265625,0.251953125,4,1,7,45,7,963.054016113281,938.769592285156,0,1,faces,male,0,1,objects,A,small,EX,O,84,E11,348.736328125
0,1,1,22379,2.51171875,0.24609375,5,0,5,36,8,845.337280273438,944.814514160156,0,1,faces,female,0,1,objects,A,small,EX,O,84,E11,348.736328125
0,1,0,22381,3.638671875,0.169921875,6,0,4,27,10,755.707275390625,923.368103027344,0,1,objects,small,0,1,objects,A,small,EX,O,84,E11,348.736328125
0,1,0,22395,0.19921875,0.14453125,1,1,9,32,1,826.8759765625,564.20166015625,0,1,objects,small,1,1,faces,P,female,VS,I,85,E11,352.935546875
0,1,0,22396,0.37109375,0.1640625,2,1,5,23,2,761.104309082031,548.803100585938,0,1,faces,male,1,1,faces,P,female,VS,I,85,E11,352.935546875
0,1,0,22397,0.57421875,0.244140625,3,1,4,20,3,747.764770507812,286.271057128906,0,1,objects,small,1,1,faces,P,female,VS,I,85,E11,352.935546875
0,0,1,22398,0.853515625,0.283203125,4,1,2,12,4,630.497009277344,359.079833984375,1,0,NaN,NaN,1,1,faces,P,female,VS,I,85,E11,352.935546875
0,1,0,22404,0.439453125,0.138671875,1,1,7,38,1,961.990844726562,279.439300537109,0,1,faces,female,1,1,faces,P,female,VS,I,86,E11,357.134765625
0,1,0,22407,1.060546875,0.14453125,2,1,3,18,4,692.371032714844,942.607360839844,0,1,faces,male,1,1,faces,P,female,VS,I,86,E11,357.134765625
0,1,0,22408,1.23828125,0.189453125,3,1,5,26,5,788.564758300781,840.842224121094,0,1,faces,male,1,1,faces,P,female,VS,I,86,E11,357.134765625
0,1,0,22411,1.76171875,0.146484375,4,1,15,79,8,1390.625,733.891967773438,0,1,objects,small,1,1,faces,P,female,VS,I,86,E11,357.134765625
1,0,0,22412,1.931640625,0.248046875,5,0,14,78,9,1384.75439453125,658.082336425781,1,0,NaN,NaN,1,1,faces,P,female,VS,I,86,E11,357.134765625
0,0,0,22413,2.220703125,0.146484375,6,0,13,67,10,1288.93444824219,471.118957519531,0,1,faces,female,1,1,faces,P,female,VS,I,86,E11,357.134765625
2,0,0,22414,3.50390625,0.736328125,7,0,14,78,11,1350.03967285156,652.040893554688,1,0,NaN,NaN,1,1,faces,P,female,VS,I,86,E11,357.134765625
0,1,0,22417,0.533203125,0.193359375,1,1,7,31,1,854.728942871094,421.775238037109,0,1,objects,small,0,1,faces,A,male,EX,F,87,E11,361.333984375
1,1,1,22418,0.759765625,0.17578125,2,1,8,39,2,986.659545898438,368.450897216797,0,1,faces,female,0,1,faces,A,male,EX,F,87,E11,361.333984375
0,1,0,22420,1.15625,0.142578125,3,1,3,11,4,623.021545410156,206.629302978516,0,1,faces,female,0,1,faces,A,male,EX,F,87,E11,361.333984375
0,1,0,22421,1.3203125,0.29296875,4,1,2,10,5,671.748413085938,181.866256713867,0,1,faces,female,0,1,faces,A,male,EX,F,87,E11,361.333984375
0,1,0,22422,1.646484375,0.25,5,0,1,1,6,550.787902832031,180.138687133789,0,1,faces,male,0,1,faces,A,male,EX,F,87,E11,361.333984375
0,1,0,22423,2.478515625,0.134765625,6,0,13,62,7,1148.93859863281,856.185546875,0,1,faces,male,0,1,faces,A,male,EX,F,87,E11,361.333984375
0,1,0,22424,2.63671875,0.1171875,7,0,11,53,8,1077.76232910156,848.583068847656,0,1,objects,big,0,1,faces,A,male,EX,F,87,E11,361.333984375
2,1,1,22426,3.5859375,0.21875,8,0,8,39,10,954.874084472656,363.818450927734,0,1,faces,female,0,1,faces,A,male,EX,F,87,E11,361.333984375
1,1,0,22434,0.24609375,0.30078125,1,1,6,38,2,952.568054199219,278.277404785156,0,1,faces,male,0,1,objects,A,big,EX,O,88,E11,365.533203125
2,1,0,22436,1.564453125,0.19921875,2,1,6,38,4,934.478271484375,263.690673828125,0,1,faces,male,0,1,objects,A,big,EX,O,88,E11,365.533203125
0,1,0,22437,1.830078125,0.12890625,3,1,15,78,5,1352.96765136719,663.742736816406,0,1,objects,big,0,1,objects,A,big,EX,O,88,E11,365.533203125
0,1,0,22447,0.224609375,0.224609375,1,1,6,40,1,930.779663085938,441.702911376953,0,1,faces,female,1,1,objects,P,big,VS,O,89,E11,369.732421875
0,0,0,22449,0.697265625,0.2265625,2,1,8,50,3,1082.50415039062,537.29296875,1,0,NaN,NaN,1,1,objects,P,big,VS,O,89,E11,369.732421875
1,1,0,22454,0.201171875,0.119140625,1,1,10,58,1,1111.81518554688,434.192474365234,1,0,NaN,NaN,1,1,faces,P,female,VS,F,90,E11,373.931640625
0,1,0,22455,0.34765625,0.15234375,2,1,7,49,2,1046.40197753906,417.639862060547,0,1,objects,big,1,1,faces,P,female,VS,F,90,E11,373.931640625
2,0,1,22456,0.53125,0.28515625,3,1,10,58,3,1157.63330078125,435.494384765625,1,0,NaN,NaN,1,1,faces,P,female,VS,F,90,E11,373.931640625
0,1,0,22470,0.185546875,0.20703125,1,1,7,41,1,957.800842285156,587.313842773438,0,1,faces,female,1,0,faces,P,male,VS,F,91,E11,378.130859375
0,0,0,22472,0.595703125,0.205078125,2,1,8,47,3,1063.048828125,279.712738037109,1,0,NaN,NaN,1,0,faces,P,male,VS,F,91,E11,378.130859375
0,0,0,22474,1.009765625,0.154296875,3,1,2,4,5,553.834289550781,455.798126220703,0,1,faces,male,1,0,faces,P,male,VS,F,91,E11,378.130859375
0,0,1,22475,1.203125,0.142578125,4,1,1,1,6,544.256103515625,183.677841186523,0,1,faces,female,1,0,faces,P,male,VS,F,91,E11,378.130859375
0,0,0,22479,1.853515625,0.2109375,5,0,3,9,10,586.210388183594,946.616821289062,0,1,faces,female,1,0,faces,P,male,VS,F,91,E11,378.130859375
0,0,0,22481,2.244140625,0.283203125,6,0,6,35,12,883.823303222656,832.623107910156,0,1,faces,male,1,0,faces,P,male,VS,F,91,E11,378.130859375
0,0,1,22482,2.5859375,0.154296875,7,0,9,50,13,1013.52026367188,580.897399902344,0,1,faces,male,1,0,faces,P,male,VS,F,91,E11,378.130859375
0,0,0,22484,2.98046875,0.134765625,8,0,15,78,15,1312.87353515625,633.562683105469,0,1,objects,big,1,0,faces,P,male,VS,F,91,E11,378.130859375
0,0,0,22485,3.14453125,0.21484375,9,0,14,68,16,1258.46630859375,579.382934570312,0,1,faces,female,1,0,faces,P,male,VS,F,91,E11,378.130859375
0,0,0,22487,3.70703125,0.25390625,10,0,13,66,18,1242.57800292969,290.671112060547,0,1,faces,male,1,0,faces,P,male,VS,F,91,E11,378.130859375
0,1,0,22494,0.232421875,0.16796875,1,1,7,46,1,1108.94018554688,187.663009643555,0,1,objects,small,0,1,faces,A,male,VS,F,92,E11,382.330078125
0,1,0,22495,0.421875,0.205078125,2,1,9,55,2,1146.82946777344,168.313415527344,0,1,faces,male,0,1,faces,A,male,VS,F,92,E11,382.330078125
0,1,0,22496,0.673828125,0.208984375,3,1,3,40,3,942.542297363281,461.018981933594,0,1,objects,big,0,1,faces,A,male,VS,F,92,E11,382.330078125
0,1,0,22497,0.921875,0.134765625,4,1,5,42,4,927.191162109375,614.161193847656,0,1,faces,male,0,1,faces,A,male,VS,F,92,E11,382.330078125
0,1,0,22498,1.076171875,0.173828125,5,0,4,41,5,935.673828125,571.541076660156,0,1,faces,male,0,1,faces,A,male,VS,F,92,E11,382.330078125
0,1,0,22499,1.287109375,0.203125,6,0,11,60,6,1148.16467285156,636.826232910156,0,1,faces,female,0,1,faces,A,male,VS,F,92,E11,382.330078125
0,1,0,22500,1.53125,0.1484375,7,0,15,80,7,1360.8603515625,849.042053222656,0,1,objects,small,0,1,faces,A,male,VS,F,92,E11,382.330078125
0,1,0,22501,1.71875,0.16796875,8,0,8,54,8,1015.39361572266,940.676391601562,0,1,objects,small,0,1,faces,A,male,VS,F,92,E11,382.330078125
0,1,0,22502,1.908203125,0.205078125,9,0,6,45,9,981.611450195312,943.158386230469,0,1,faces,male,0,1,faces,A,male,VS,F,92,E11,382.330078125
0,1,1,22503,2.154296875,0.162109375,10,0,2,18,10,636.786743164062,945.261657714844,0,1,faces,female,0,1,faces,A,male,VS,F,92,E11,382.330078125
0,1,1,22507,2.75,0.15625,11,0,1,1,14,552.035278320312,144.900802612305,0,1,faces,female,0,1,faces,A,male,VS,F,92,E11,382.330078125
0,1,0,22508,2.986328125,0.158203125,12,0,10,58,15,1165.51586914062,485.952972412109,0,1,objects,big,0,1,faces,A,male,VS,F,92,E11,382.330078125
0,1,1,22509,3.1796875,0.162109375,13,0,14,76,16,1332.62683105469,470.2705078125,0,1,faces,female,0,1,faces,A,male,VS,F,92,E11,382.330078125
0,1,0,22511,3.591796875,0.138671875,14,0,12,67,18,1248.75109863281,447.655548095703,0,1,faces,male,0,1,faces,A,male,VS,F,92,E11,382.330078125
0,1,0,22512,3.767578125,0.181640625,15,0,13,75,19,1366.38000488281,361.827209472656,0,1,faces,female,0,1,faces,A,male,VS,F,92,E11,382.330078125
0,1,0,22519,0.1875,0.1484375,1,1,9,40,1,997.126159667969,480.343292236328,0,1,objects,small,1,1,faces,P,male,VS,I,93,E11,386.529296875
0,1,0,22520,0.4453125,0.19140625,2,1,8,37,2,956.279724121094,186.691207885742,0,1,faces,female,1,1,faces,P,male,VS,I,93,E11,386.529296875
0,1,0,22522,0.875,0.126953125,3,1,10,58,4,1179.39758300781,453.214874267578,0,1,faces,female,1,1,faces,P,male,VS,I,93,E11,386.529296875
0,1,0,22523,1.03125,0.140625,4,1,12,67,5,1272.46240234375,462.600708007812,0,1,faces,male,1,1,faces,P,male,VS,I,93,E11,386.529296875
1,1,0,22525,1.443359375,0.15234375,5,0,5,26,7,792.541687011719,813.348510742188,0,1,faces,male,1,1,faces,P,male,VS,I,93,E11,386.529296875
0,1,0,22526,1.6640625,0.1953125,6,0,14,72,8,1294.01525878906,956.235290527344,0,1,faces,male,1,1,faces,P,male,VS,I,93,E11,386.529296875
1,1,0,22527,1.923828125,0.177734375,7,0,7,35,9,836.823425292969,861.582275390625,1,0,NaN,NaN,1,1,faces,P,male,VS,I,93,E11,386.529296875
2,1,0,22528,2.126953125,0.109375,8,0,5,26,10,738.907165527344,830.829162597656,0,1,faces,male,1,1,faces,P,male,VS,I,93,E11,386.529296875
2,0,1,22529,2.265625,0.259765625,9,0,7,35,11,866.997253417969,849.596618652344,1,0,NaN,NaN,1,1,faces,P,male,VS,I,93,E11,386.529296875
0,1,0,22541,0.2421875,0.31640625,1,1,8,49,1,1033.53283691406,430.747589111328,0,1,faces,male,0,1,faces,A,male,EX,I,94,E11,390.728515625
0,1,0,22542,0.599609375,0.22265625,2,1,3,22,2,725.405883789062,419.566680908203,0,1,objects,big,0,1,faces,A,male,EX,I,94,E11,390.728515625
0,1,0,22543,1.396484375,0.31640625,3,1,5,25,3,761.633972167969,760.183288574219,0,1,faces,male,0,1,faces,A,male,EX,I,94,E11,390.728515625
0,1,0,22544,1.75,0.271484375,4,1,6,35,4,884.1064453125,844.156799316406,0,1,objects,small,0,1,faces,A,male,EX,I,94,E11,390.728515625
0,1,0,22545,3.732421875,0.3203125,5,0,10,52,5,1080.97265625,737.693481445312,0,1,faces,male,0,1,faces,A,male,EX,I,94,E11,390.728515625
0,1,0,22554,0.533203125,0.201171875,1,1,7,38,3,914.56005859375,288.870788574219,0,1,faces,female,0,1,faces,A,female,VS,F,95,E11,394.927734375
0,1,0,22556,1.021484375,0.171875,2,1,10,65,5,1236.96618652344,277.432312011719,0,1,faces,female,0,1,faces,A,female,VS,F,95,E11,394.927734375
0,1,0,22557,1.267578125,0.115234375,3,1,15,80,6,1348.5537109375,791.111267089844,0,1,objects,big,0,1,faces,A,female,VS,F,95,E11,394.927734375
1,1,0,22558,1.416015625,0.14453125,4,1,9,61,7,1173.3125,771.033813476562,0,1,faces,female,0,1,faces,A,female,VS,F,95,E11,394.927734375
0,1,0,22559,1.6171875,0.201171875,5,0,14,78,8,1364.00915527344,680.755004882812,0,1,faces,female,0,1,faces,A,female,VS,F,95,E11,394.927734375
0,1,0,22562,2.17578125,0.244140625,6,0,2,3,11,530.34375,348.286987304688,0,1,faces,male,0,1,faces,A,female,VS,F,95,E11,394.927734375
0,1,0,22563,2.4453125,0.150390625,7,0,1,2,12,551.282287597656,270.72412109375,0,1,faces,female,0,1,faces,A,female,VS,F,95,E11,394.927734375
0,1,0,22565,2.82421875,0.14453125,8,0,6,36,14,864.389099121094,939.621643066406,0,1,faces,male,0,1,faces,A,female,VS,F,95,E11,394.927734375
2,1,0,22569,3.41015625,0.107421875,9,0,9,61,18,1181.68225097656,723.489990234375,0,1,faces,female,0,1,faces,A,female,VS,F,95,E11,394.927734375
0,1,0,22577,0.22265625,0.201171875,1,1,8,52,1,1024.41381835938,731.580627441406,0,1,objects,small,1,1,faces,P,female,VS,I,96,E11,399.126953125
0,1,1,22580,0.73046875,0.130859375,2,1,7,48,4,1009.66485595703,318.336212158203,0,1,faces,female,1,1,faces,P,female,VS,I,96,E11,399.126953125
0,1,0,22583,1.2734375,0.126953125,3,1,2,11,7,640.268859863281,265.901184082031,0,1,faces,male,1,1,faces,P,female,VS,I,96,E11,399.126953125
0,1,0,22584,1.4765625,0.15625,4,1,3,27,8,785.076232910156,922.80615234375,0,1,objects,small,1,1,faces,P,female,VS,I,96,E11,399.126953125
0,1,0,22585,1.669921875,0.162109375,5,0,6,45,9,968.380737304688,932.016784667969,0,1,faces,female,1,1,faces,P,female,VS,I,96,E11,399.126953125
0,1,0,22587,2.0390625,0.150390625,6,0,15,70,11,1263.32604980469,734.72607421875,0,1,faces,male,1,1,faces,P,female,VS,I,96,E11,399.126953125
1,0,0,22588,2.255859375,0.212890625,7,0,14,68,12,1250.17785644531,519.006713867188,1,0,NaN,NaN,1,1,faces,P,female,VS,I,96,E11,399.126953125
2,0,1,22591,3.56640625,0.4921875,8,0,14,68,15,1261.90478515625,548.708679199219,1,0,NaN,NaN,1,1,faces,P,female,VS,I,96,E11,399.126953125
1,1,0,22596,0.263671875,0.14453125,1,1,12,68,1,1249.50170898438,568.2421875,0,1,faces,female,0,0,faces,P,female,VS,F,97,E11,403.326171875
0,1,0,22597,0.45703125,0.1640625,2,1,11,60,2,1110.60205078125,652.200805664062,0,1,objects,big,0,0,faces,P,female,VS,F,97,E11,403.326171875
1,1,0,22598,0.65625,0.185546875,3,1,9,52,3,1051.83532714844,789.750732421875,0,1,faces,female,0,0,faces,P,female,VS,F,97,E11,403.326171875
1,1,0,22599,0.869140625,0.166015625,4,1,10,53,4,1074.57873535156,878.6142578125,0,1,faces,female,0,0,faces,P,female,VS,F,97,E11,403.326171875
0,1,0,22600,1.078125,0.27734375,5,0,7,36,5,816.52197265625,938.190551757812,0,1,faces,female,0,0,faces,P,female,VS,F,97,E11,403.326171875
1,1,0,22601,1.396484375,0.19140625,6,0,2,9,6,539.413024902344,936.823791503906,0,1,faces,female,0,0,faces,P,female,VS,F,97,E11,403.326171875
0,1,0,22602,1.61328125,0.19921875,7,0,1,8,7,537.152954101562,842.23046875,0,1,faces,male,0,0,faces,P,female,VS,F,97,E11,403.326171875
2,1,1,22603,1.849609375,0.13671875,8,0,2,9,8,548.451538085938,986.347778320312,0,1,faces,female,0,0,faces,P,female,VS,F,97,E11,403.326171875
0,1,0,22605,2.177734375,0.138671875,9,0,5,26,10,768.20654296875,835.533203125,0,1,objects,small,0,0,faces,P,female,VS,F,97,E11,403.326171875
0,1,0,22606,2.34765625,0.1328125,10,0,4,16,11,660.777526855469,753.312377929688,0,1,objects,big,0,0,faces,P,female,VS,F,97,E11,403.326171875
0,1,0,22607,2.615234375,0.208984375,11,0,6,28,12,842.340454101562,179.213256835938,0,1,faces,male,0,0,faces,P,female,VS,F,97,E11,403.326171875
2,1,0,22608,2.896484375,0.21875,12,0,12,68,13,1276.13208007812,577.321594238281,0,1,faces,female,0,0,faces,P,female,VS,F,97,E11,403.326171875
2,1,1,22609,3.15234375,0.201171875,13,0,9,52,14,1062.68273925781,730.376892089844,0,1,faces,female,0,0,faces,P,female,VS,F,97,E11,403.326171875
2,1,0,22611,3.548828125,0.134765625,14,0,10,53,16,1068.560546875,855.999206542969,0,1,faces,female,0,0,faces,P,female,VS,F,97,E11,403.326171875
0,1,0,22612,3.75,0.109375,15,0,14,76,17,1385.4697265625,464.002532958984,0,1,faces,male,0,0,faces,P,female,VS,F,97,E11,403.326171875
0,1,0,22620,0.265625,0.25,1,1,8,46,1,1046.84692382812,115.586898803711,0,1,faces,male,0,1,faces,P,male,VS,F,98,E11,407.525390625
0,1,0,22621,0.556640625,0.27734375,2,1,5,31,2,840.349609375,466.605194091797,0,1,faces,male,0,1,faces,P,male,VS,F,98,E11,407.525390625
0,1,0,22622,2.123046875,0.224609375,3,1,14,79,3,1360.60595703125,787.762451171875,0,1,faces,female,0,1,faces,P,male,VS,F,98,E11,407.525390625
0,1,0,22626,3.595703125,0.126953125,4,1,6,36,7,869.401611328125,923.247009277344,0,1,objects,small,0,1,faces,P,male,VS,F,98,E11,407.525390625
0,1,0,22627,3.751953125,0.1640625,5,0,4,27,8,788.151489257812,974.657836914062,0,1,faces,female,0,1,faces,P,male,VS,F,98,E11,407.525390625
0,1,0,22633,0.345703125,0.236328125,1,1,9,49,1,1045.46472167969,476.911376953125,0,1,faces,female,0,1,faces,A,female,EX,F,99,E11,411.724609375
1,1,0,22635,0.80078125,0.134765625,2,1,2,5,3,554.728088378906,571.493896484375,0,1,faces,male,0,1,faces,A,female,EX,F,99,E11,411.724609375
0,1,0,22637,1.185546875,0.158203125,3,1,3,9,5,566.603210449219,977.70849609375,0,1,faces,female,0,1,faces,A,female,EX,F,99,E11,411.724609375
2,1,0,22638,1.41015625,0.224609375,4,1,2,5,6,570.179077148438,539.948852539062,0,1,faces,male,0,1,faces,A,female,EX,F,99,E11,411.724609375
0,1,0,22639,3.25390625,0.21484375,5,0,10,50,7,1044.58361816406,528.60595703125,0,1,faces,male,0,1,faces,A,female,EX,F,99,E11,411.724609375
0,1,0,22640,3.5390625,0.3046875,6,0,1,4,8,514.29345703125,489.290863037109,0,1,objects,big,0,1,faces,A,female,EX,F,99,E11,411.724609375
0,1,0,22647,0.197265625,0.19921875,1,1,6,40,2,1006.47235107422,467.943542480469,0,1,objects,big,1,1,faces,P,male,VS,F,100,E11,415.923828125
0,1,0,22650,0.798828125,0.154296875,2,1,9,50,5,1053.08911132812,554.915405273438,0,1,objects,big,1,1,faces,P,male,VS,F,100,E11,415.923828125
0,1,0,22651,1.00390625,0.166015625,3,1,5,25,6,754.466003417969,740.201904296875,0,1,objects,small,1,1,faces,P,male,VS,F,100,E11,415.923828125
0,1,1,22652,1.212890625,0.13671875,4,1,8,49,7,1011.81103515625,470.540130615234,0,1,faces,male,1,1,faces,P,male,VS,F,100,E11,415.923828125
1,1,0,22654,1.67578125,0.16015625,5,0,11,56,9,1138.93688964844,282.091339111328,1,0,NaN,NaN,1,1,faces,P,male,VS,F,100,E11,415.923828125
0,1,0,22655,1.8671875,0.2421875,6,0,12,65,10,1247.72900390625,275.350006103516,0,1,faces,female,1,1,faces,P,male,VS,F,100,E11,415.923828125
2,0,1,22656,2.13671875,0.337890625,7,0,11,56,11,1157.48718261719,279.173126220703,1,0,NaN,NaN,1,1,faces,P,male,VS,F,100,E11,415.923828125
0,0,0,22659,3.193359375,0.1640625,8,0,7,47,14,1052.54699707031,289.380096435547,0,1,faces,female,1,1,faces,P,male,VS,F,100,E11,415.923828125
0,0,0,22660,3.3984375,0.162109375,9,0,4,22,15,759.153076171875,485.462066650391,0,1,objects,small,1,1,faces,P,male,VS,F,100,E11,415.923828125
0,0,0,22662,3.876953125,0.181640625,10,0,2,13,17,666.841796875,486.899291992188,0,1,faces,male,1,1,faces,P,male,VS,F,100,E11,415.923828125
0,1,0,22675,2.22265625,0.103515625,1,1,14,75,6,1344.63220214844,357.497161865234,0,1,faces,female,0,1,faces,A,female,EX,I,101,E11,420.123046875
1,1,0,22692,1.42578125,0.1796875,1,1,3,11,7,665.141540527344,248.34326171875,0,1,faces,female,0,1,faces,P,female,VS,I,102,E11,424.322265625
2,1,0,22694,1.814453125,0.236328125,2,1,3,11,9,632.247680664062,247.919036865234,0,1,faces,female,0,1,faces,P,female,VS,I,102,E11,424.322265625
0,1,0,22696,2.353515625,0.49609375,3,1,11,54,11,1066.06872558594,909.898010253906,0,1,faces,male,0,1,faces,P,female,VS,I,102,E11,424.322265625
0,1,0,22703,0.90625,0.154296875,1,1,14,80,2,1321.12426757812,885.0859375,0,1,faces,male,1,1,objects,P,big,VS,O,103,E11,428.521484375
0,1,0,22704,1.119140625,0.115234375,2,1,10,60,3,1172.47180175781,628.447570800781,1,0,NaN,NaN,1,1,objects,P,big,VS,O,103,E11,428.521484375
0,1,0,22705,1.267578125,0.171875,3,1,9,58,4,1179.05090332031,483.462524414062,0,1,faces,male,1,1,objects,P,big,VS,O,103,E11,428.521484375
0,1,1,22707,1.6171875,0.11328125,4,1,13,75,6,1373.02490234375,351.176971435547,0,1,objects,big,1,1,objects,P,big,VS,O,103,E11,428.521484375
0,1,0,22710,2.318359375,0.10546875,5,0,3,8,9,570.183654785156,829.107727050781,0,1,faces,female,1,1,objects,P,big,VS,O,103,E11,428.521484375
0,1,0,22711,2.458984375,0.255859375,6,0,2,6,10,572.513061523438,671.731201171875,0,1,objects,big,1,1,objects,P,big,VS,O,103,E11,428.521484375
0,1,1,22712,3.349609375,0.169921875,7,0,15,81,11,1317.10791015625,905.612426757812,0,1,faces,female,1,1,objects,P,big,VS,O,103,E11,428.521484375
0,1,0,22722,0.4453125,0.2109375,1,1,2,22,3,729.377075195312,448.583709716797,0,1,objects,big,0,1,objects,A,big,EX,O,104,E11,432.720703125
0,1,0,22725,1.16015625,0.1015625,2,1,4,37,6,927.428466796875,181.174423217773,0,1,faces,female,0,1,objects,A,big,EX,O,104,E11,432.720703125
0,1,0,22727,2.373046875,0.322265625,3,1,5,41,8,916.351135253906,575.351928710938,0,1,faces,male,0,1,objects,A,big,EX,O,104,E11,432.720703125
0,1,1,22729,3.5,0.255859375,4,1,10,61,10,1140.91857910156,734.794494628906,0,1,faces,female,0,1,objects,A,big,EX,O,104,E11,432.720703125
0,1,0,22740,0.228515625,0.171875,1,1,2,31,1,825.533264160156,453.917572021484,0,1,objects,small,0,0,faces,P,female,VS,F,105,E11,436.919921875
1,1,0,22741,0.4375,0.171875,2,1,6,39,2,922.968017578125,356.583282470703,0,1,faces,female,0,0,faces,P,female,VS,F,105,E11,436.919921875
0,1,0,22743,0.96484375,0.3046875,3,1,8,53,4,1032.37097167969,831.999206542969,0,1,faces,female,0,0,faces,P,female,VS,F,105,E11,436.919921875
0,1,1,22744,1.3046875,0.228515625,4,1,5,35,5,835.255493164062,836.358520507812,0,1,faces,male,0,0,faces,P,female,VS,F,105,E11,436.919921875
0,1,0,22746,1.68359375,0.2578125,5,0,10,63,7,1150.08068847656,962.852233886719,0,1,faces,female,0,0,faces,P,female,VS,F,105,E11,436.919921875
0,1,0,22747,1.98046875,0.171875,6,0,14,71,8,1257.82849121094,830.187133789062,0,1,faces,male,0,0,faces,P,female,VS,F,105,E11,436.919921875
0,1,0,22748,2.1796875,0.1328125,7,0,13,70,9,1242.08020019531,737.14404296875,0,1,objects,big,0,0,faces,P,female,VS,F,105,E11,436.919921875
0,1,0,22751,2.708984375,0.21875,8,0,12,69,12,1229.25231933594,662.115905761719,0,1,faces,female,0,0,faces,P,female,VS,F,105,E11,436.919921875
2,1,0,22752,2.994140625,0.123046875,9,0,6,39,13,941.74462890625,360.464721679688,0,1,faces,female,0,0,faces,P,female,VS,F,105,E11,436.919921875
0,1,0,22760,0.359375,0.21484375,1,1,2,11,2,650.784423828125,266.471740722656,0,1,faces,female,0,1,faces,A,female,VS,F,106,E11,441.119140625
0,1,0,22761,0.61328125,0.19140625,2,1,5,28,3,819.3359375,172.850540161133,0,1,faces,male,0,1,faces,A,female,VS,F,106,E11,441.119140625
0,1,0,22762,0.8515625,0.36328125,3,1,10,64,4,1225.42333984375,170.997802734375,0,1,faces,female,0,1,faces,A,female,VS,F,106,E11,441.119140625
1,1,0,22764,1.427734375,0.13671875,4,1,13,71,6,1309.89709472656,819.246459960938,0,1,faces,female,0,1,faces,A,female,VS,F,106,E11,441.119140625
0,1,0,22765,1.59765625,0.181640625,5,0,9,62,7,1190.35729980469,849.110412597656,0,1,objects,small,0,1,faces,A,female,VS,F,106,E11,441.119140625
0,1,1,22767,1.943359375,0.384765625,6,0,6,35,9,815.613708496094,865.496215820312,0,1,faces,female,0,1,faces,A,female,VS,F,106,E11,441.119140625
2,1,0,22769,2.8203125,0.46484375,7,0,13,71,11,1259.81188964844,872.74365234375,0,1,faces,female,0,1,faces,A,female,VS,F,106,E11,441.119140625
0,1,0,22774,0.2578125,0.15234375,1,1,4,20,1,779.119445800781,243.880279541016,0,1,faces,male,1,1,objects,P,big,VS,O,107,E11,445.318359375
1,0,0,22775,0.455078125,0.25,2,1,2,6,2,521.582092285156,618.325744628906,1,0,NaN,NaN,1,1,objects,P,big,VS,O,107,E11,445.318359375
2,0,1,22777,0.9375,0.16015625,3,1,2,6,4,537.700317382812,661.139282226562,1,0,NaN,NaN,1,1,objects,P,big,VS,O,107,E11,445.318359375
1,1,1,22784,0.373046875,0.21875,1,1,4,22,2,745.436889648438,413.758483886719,0,1,faces,female,0,0,faces,A,female,VS,I,108,E11,449.517578125
0,1,0,22788,1.189453125,0.189453125,2,1,5,26,6,737.615661621094,852.84326171875,0,1,faces,female,0,0,faces,A,female,VS,I,108,E11,449.517578125
0,1,0,22789,1.4140625,0.15234375,3,1,7,36,7,854.62451171875,970.746704101562,0,1,faces,female,0,0,faces,A,female,VS,I,108,E11,449.517578125
2,1,0,22792,1.8515625,0.298828125,4,1,4,22,10,732.27587890625,481.874481201172,0,1,faces,female,0,0,faces,A,female,VS,I,108,E11,449.517578125
0,1,0,22793,2.193359375,0.169921875,5,0,2,11,11,695.836303710938,231.614044189453,0,1,faces,male,0,0,faces,A,female,VS,I,108,E11,449.517578125
1,1,0,22796,3.146484375,0.134765625,6,0,11,48,14,1012.03973388672,378.369049072266,0,1,faces,female,0,0,faces,A,female,VS,I,108,E11,449.517578125
2,1,0,22798,3.47265625,0.234375,7,0,11,48,16,1032.99633789062,295.92041015625,0,1,faces,female,0,0,faces,A,female,VS,I,108,E11,449.517578125
0,1,1,22799,3.771484375,0.130859375,8,0,15,77,17,1372.9248046875,585.169677734375,0,1,faces,male,0,0,faces,A,female,VS,I,108,E11,449.517578125
1,1,0,22807,0.529296875,0.10546875,1,1,4,21,3,746.759033203125,388.660003662109,0,1,faces,female,0,0,faces,A,male,VS,F,109,E11,453.716796875
1,1,0,22809,0.9453125,0.24609375,2,1,7,25,5,773.325622558594,759.841552734375,0,1,faces,female,0,0,faces,A,male,VS,F,109,E11,453.716796875
0,1,0,22810,1.248046875,0.13671875,3,1,8,36,6,856.4033203125,975.462524414062,0,1,faces,male,0,0,faces,A,male,VS,F,109,E11,453.716796875
2,1,0,22811,1.42578125,1.212890625,4,1,7,25,7,766.096496582031,778.001098632812,0,1,faces,female,0,0,faces,A,male,VS,F,109,E11,453.716796875
0,1,1,22812,2.693359375,0.158203125,5,0,15,72,8,1308.71166992188,962.653930664062,0,1,objects,big,0,0,faces,A,male,VS,F,109,E11,453.716796875
0,1,0,22814,3.041015625,0.13671875,6,0,14,67,10,1213.10107421875,459.508331298828,0,1,faces,female,0,0,faces,A,male,VS,F,109,E11,453.716796875
0,1,0,22815,3.208984375,0.12890625,7,0,11,58,11,1153.49072265625,405.573272705078,0,1,faces,male,0,0,faces,A,male,VS,F,109,E11,453.716796875
0,1,0,22816,3.35546875,0.158203125,8,0,10,57,12,1154.89916992188,380.638458251953,0,1,faces,male,0,0,faces,A,male,VS,F,109,E11,453.716796875
2,1,0,22817,3.55859375,0.220703125,9,0,4,21,13,734.608520507812,316.87939453125,0,1,faces,female,0,0,faces,A,male,VS,F,109,E11,453.716796875
0,1,0,22825,0.462890625,0.248046875,1,1,3,30,3,838.064147949219,369.498199462891,0,1,objects,big,0,1,objects,A,big,VS,O,110,E11,457.916015625
0,1,0,22826,0.7734375,0.109375,2,1,4,33,4,878.636779785156,667.468566894531,0,1,objects,small,0,1,objects,A,big,VS,O,110,E11,457.916015625
0,1,0,22829,1.24609375,0.28125,3,1,8,58,7,1161.78735351562,454.685791015625,0,1,objects,small,0,1,objects,A,big,VS,O,110,E11,457.916015625
0,1,0,22830,1.5625,0.263671875,4,1,7,56,8,1159.36169433594,285.913421630859,0,1,faces,male,0,1,objects,A,big,VS,O,110,E11,457.916015625
0,1,0,22832,2.138671875,0.12109375,5,0,15,79,10,1345.50500488281,741.756469726562,0,1,objects,big,0,1,objects,A,big,VS,O,110,E11,457.916015625
0,1,0,22833,2.296875,0.333984375,6,0,6,53,11,1071.5986328125,866.708312988281,0,1,objects,big,0,1,objects,A,big,VS,O,110,E11,457.916015625
0,1,0,22834,2.6953125,0.23828125,7,0,2,9,12,531.027709960938,971.571044921875,0,1,faces,male,0,1,objects,A,big,VS,O,110,E11,457.916015625
0,1,0,22835,3.5390625,0.236328125,8,0,14,73,13,1363.32727050781,180.402145385742,0,1,faces,female,0,1,objects,A,big,VS,O,110,E11,457.916015625
0,1,0,22843,0.287109375,0.228515625,1,1,8,33,2,831.250610351562,690.130981445312,0,1,faces,male,0,1,objects,A,small,VS,O,111,E11,462.115234375
1,1,1,22848,1.09765625,0.12890625,2,1,15,75,7,1360.98156738281,353.349212646484,0,1,faces,male,0,1,objects,A,small,VS,O,111,E11,462.115234375
1,1,0,22852,1.916015625,0.12109375,3,1,13,53,11,1011.13665771484,882.249938964844,0,1,objects,big,0,1,objects,A,small,VS,O,111,E11,462.115234375
0,1,1,22853,2.072265625,0.134765625,4,1,5,26,12,786.459655761719,854.783203125,0,1,objects,small,0,1,objects,A,small,VS,O,111,E11,462.115234375
0,1,0,22855,2.38671875,0.138671875,5,0,1,7,14,534.316528320312,752.719970703125,0,1,objects,big,0,1,objects,A,small,VS,O,111,E11,462.115234375
2,1,0,22856,2.587890625,0.240234375,6,0,13,53,15,1041.90100097656,840.636596679688,0,1,objects,big,0,1,objects,A,small,VS,O,111,E11,462.115234375
2,1,0,22859,3.48046875,0.12109375,7,0,15,75,18,1392.39404296875,383.289886474609,0,1,faces,male,0,1,objects,A,small,VS,O,111,E11,462.115234375
0,1,0,22865,0.20703125,0.224609375,1,1,6,40,1,962.501647949219,449.238464355469,0,1,objects,big,0,1,faces,A,male,EX,F,112,E11,466.314453125
0,1,0,22866,1.13671875,0.18359375,2,1,12,70,2,1265.37744140625,746.381713867188,0,1,faces,male,0,1,faces,A,male,EX,F,112,E11,466.314453125
0,1,0,22878,1.068359375,0.232421875,1,1,3,3,4,537.49755859375,381.490173339844,0,1,faces,male,0,1,faces,A,male,EX,I,113,E11,470.513671875
0,1,0,22879,2.021484375,0.3203125,2,1,6,51,5,1098.94299316406,648.871520996094,0,1,objects,small,0,1,faces,A,male,EX,I,113,E11,470.513671875
1,1,0,22887,0.685546875,0.271484375,1,1,7,12,1,620.473266601562,377.467559814453,0,1,faces,female,0,1,faces,A,male,VS,I,114,E11,474.712890625
0,1,0,22888,0.986328125,0.322265625,2,1,2,4,2,542.267578125,451.617553710938,0,1,faces,male,0,1,faces,A,male,VS,I,114,E11,474.712890625
0,1,1,22889,1.349609375,0.197265625,3,1,5,10,3,616.323120117188,186.740142822266,0,1,objects,big,0,1,faces,A,male,VS,I,114,E11,474.712890625
0,1,0,22891,1.755859375,0.20703125,4,1,6,11,5,647.739990234375,273.772888183594,0,1,faces,male,0,1,faces,A,male,VS,I,114,E11,474.712890625
2,1,0,22892,1.98828125,0.17578125,5,0,7,12,6,703.721557617188,366.406555175781,0,1,faces,female,0,1,faces,A,male,VS,I,114,E11,474.712890625
0,1,0,22893,2.240234375,0.169921875,6,0,4,9,7,609.369262695312,943.229370117188,0,1,faces,male,0,1,faces,A,male,VS,I,114,E11,474.712890625
0,1,0,22895,2.697265625,0.201171875,7,0,10,21,9,733.380920410156,389.409332275391,0,1,faces,male,0,1,faces,A,male,VS,I,114,E11,474.712890625
0,1,1,22896,2.943359375,0.1875,8,0,11,49,10,1088.33215332031,478.863250732422,0,1,faces,male,0,1,faces,A,male,VS,I,114,E11,474.712890625
0,1,0,22898,3.353515625,0.58203125,9,0,14,67,12,1240.82727050781,486.710266113281,0,1,faces,female,0,1,faces,A,male,VS,I,114,E11,474.712890625
0,1,0,22902,0.341796875,0.1875,1,1,7,31,2,834.977111816406,467.317108154297,0,1,faces,male,1,1,faces,P,female,VS,I,115,E11,478.912109375
0,1,0,22904,0.71484375,0.2734375,2,1,5,25,4,736.507568359375,760.924987792969,0,1,faces,male,1,1,faces,P,female,VS,I,115,E11,478.912109375
0,1,0,22905,1.017578125,0.1484375,3,1,8,34,5,852.373229980469,767.223449707031,0,1,faces,male,1,1,faces,P,female,VS,I,115,E11,478.912109375
0,1,0,22906,1.201171875,0.2265625,4,1,9,35,6,847.418395996094,861.163879394531,0,1,faces,male,1,1,faces,P,female,VS,I,115,E11,478.912109375
1,1,0,22908,1.625,0.251953125,5,0,3,4,8,516.8330078125,401.537719726562,0,1,faces,male,1,1,faces,P,female,VS,I,115,E11,478.912109375
0,1,0,22909,1.8984375,0.177734375,6,0,2,3,9,534.538940429688,354.600646972656,1,0,NaN,NaN,1,1,faces,P,female,VS,I,115,E11,478.912109375
2,1,1,22910,2.109375,0.298828125,7,0,3,4,10,537.325805664062,485.167785644531,0,1,faces,male,1,1,faces,P,female,VS,I,115,E11,478.912109375
0,1,0,22919,0.216796875,0.30078125,1,1,10,41,1,918.831970214844,528.149169921875,0,1,faces,male,0,0,faces,P,female,VS,I,116,E11,483.111328125
0,1,0,22920,0.55859375,0.171875,2,1,5,16,2,636.176086425781,769.742736816406,0,1,objects,big,0,0,faces,P,female,VS,I,116,E11,483.111328125
0,1,1,22921,0.7734375,0.181640625,3,1,4,5,3,540.877502441406,563.133117675781,0,1,faces,female,0,0,faces,P,female,VS,I,116,E11,483.111328125
1,1,0,22923,1.224609375,0.21484375,4,1,11,59,5,1159.18493652344,542.389221191406,0,1,faces,female,0,0,faces,P,female,VS,I,116,E11,483.111328125
0,1,0,22924,1.484375,0.279296875,5,0,13,70,6,1249.02478027344,709.013427734375,0,1,faces,female,0,0,faces,P,female,VS,I,116,E11,483.111328125
2,1,0,22925,1.806640625,0.158203125,6,0,11,59,7,1126.29418945312,588.263671875,0,1,faces,female,0,0,faces,P,female,VS,I,116,E11,483.111328125
0,1,0,22929,2.302734375,0.1640625,7,0,6,20,11,802.522583007812,207.475997924805,0,1,faces,male,0,0,faces,P,female,VS,I,116,E11,483.111328125
0,1,0,22930,2.509765625,0.173828125,8,0,3,3,12,513.600830078125,306.793670654297,0,1,faces,male,0,0,faces,P,female,VS,I,116,E11,483.111328125
1,1,0,22932,2.8828125,0.208984375,9,0,2,2,14,518.013854980469,193.76545715332,0,1,objects,small,0,0,faces,P,female,VS,I,116,E11,483.111328125
2,1,0,22935,3.66796875,0.1171875,10,0,2,2,17,577.978576660156,226.73893737793,0,1,objects,small,0,0,faces,P,female,VS,I,116,E11,483.111328125
0,1,0,22943,0.3828125,0.2109375,1,1,6,20,3,733.072814941406,243.836013793945,0,1,faces,female,0,1,objects,P,small,VS,O,117,E11,487.310546875
0,1,0,22944,0.63671875,0.240234375,2,1,7,25,4,738.830017089844,751.605895996094,0,1,objects,big,0,1,objects,P,small,VS,O,117,E11,487.310546875
0,1,0,22945,0.935546875,0.22265625,3,1,1,1,5,575.427429199219,184.177261352539,0,1,objects,big,0,1,objects,P,small,VS,O,117,E11,487.310546875
0,1,0,22947,1.400390625,0.171875,4,1,14,63,7,1149.939453125,901.880859375,0,1,faces,female,0,1,objects,P,small,VS,O,117,E11,487.310546875
0,1,0,22948,1.60546875,0.216796875,5,0,12,45,8,946.740539550781,985.330871582031,0,1,objects,big,0,1,objects,P,small,VS,O,117,E11,487.310546875
0,1,0,22951,2.3671875,0.244140625,6,0,15,81,11,1378.29321289062,969.309020996094,0,1,objects,small,0,1,objects,P,small,VS,O,117,E11,487.310546875
0,1,0,22952,2.693359375,0.177734375,7,0,11,40,12,942.100952148438,487.767913818359,0,1,faces,female,0,1,objects,P,small,VS,O,117,E11,487.310546875
0,1,0,22962,0.265625,0.361328125,1,1,6,29,1,870.160583496094,268.887786865234,0,1,faces,female,1,1,faces,P,male,VS,I,118,E11,491.509765625
0,1,0,22966,1.404296875,0.1875,2,1,3,14,5,669.883239746094,569.062072753906,0,1,objects,small,1,1,faces,P,male,VS,I,118,E11,491.509765625
0,0,0,22967,1.62890625,0.32421875,3,1,7,33,6,862.824157714844,657.54248046875,1,0,NaN,NaN,1,1,faces,P,male,VS,I,118,E11,491.509765625
0,0,0,22968,1.9921875,0.1953125,4,1,11,50,7,1060.81066894531,566.019348144531,0,1,faces,female,1,1,faces,P,male,VS,I,118,E11,491.509765625
0,0,1,22969,3.77734375,0.15234375,5,0,10,45,8,996.021118164062,920.436096191406,0,1,faces,male,1,1,faces,P,male,VS,I,118,E11,491.509765625
1,1,0,22978,0.232421875,0.216796875,1,1,5,16,1,657.636108398438,724.77490234375,0,1,faces,female,0,1,objects,P,small,VS,O,119,E11,495.708984375
0,1,0,22979,0.494140625,0.1875,2,1,2,4,2,571.952026367188,482.363891601562,0,1,faces,female,0,1,objects,P,small,VS,O,119,E11,495.708984375
0,1,0,22980,0.716796875,0.16796875,3,1,1,3,3,527.421936035156,375.379669189453,0,1,objects,big,0,1,objects,P,small,VS,O,119,E11,495.708984375
0,1,1,22982,1.181640625,0.12890625,4,1,15,79,5,1372.97717285156,691.338012695312,0,1,faces,male,0,1,objects,P,small,VS,O,119,E11,495.708984375
0,1,0,22984,1.4765625,0.19140625,5,0,14,77,7,1371.98291015625,577.033813476562,0,1,objects,small,0,1,objects,P,small,VS,O,119,E11,495.708984375
0,1,0,22988,3.470703125,0.130859375,6,0,7,18,11,660.285888671875,966.183715820312,0,1,objects,small,0,1,objects,P,small,VS,O,119,E11,495.708984375
2,1,0,22989,3.65625,0.111328125,7,0,5,16,12,678.873352050781,765.331115722656,0,1,faces,female,0,1,objects,P,small,VS,O,119,E11,495.708984375
0,1,0,22997,0.806640625,0.134765625,1,1,2,8,2,554.108215332031,854.838317871094,0,1,objects,big,0,1,objects,A,small,EX,O,120,E11,499.908203125
0,1,0,23000,2.162109375,0.150390625,2,1,8,40,5,931.717407226562,459.514190673828,0,1,faces,female,0,1,objects,A,small,EX,O,120,E11,499.908203125
0,1,0,23001,2.37109375,0.283203125,3,1,6,34,6,896.195190429688,777.345520019531,0,1,objects,big,0,1,objects,A,small,EX,O,120,E11,499.908203125
0,1,0,23002,2.685546875,0.224609375,4,1,10,43,7,962.882080078125,763.230773925781,0,1,faces,male,0,1,objects,A,small,EX,O,120,E11,499.908203125
0,1,0,23016,0.26171875,0.189453125,1,1,5,32,2,849.783569335938,520.418640136719,0,1,objects,small,1,0,faces,P,male,VS,I,121,E11,504.107421875
0,1,1,23017,0.490234375,0.115234375,2,1,9,51,3,1062.19873046875,599.05859375,0,1,faces,female,1,0,faces,P,male,VS,I,121,E11,504.107421875
0,1,1,23021,1.255859375,0.162109375,3,1,6,34,7,857.202270507812,692.722412109375,0,1,faces,male,1,0,faces,P,male,VS,I,121,E11,504.107421875
0,1,1,23024,1.763671875,0.220703125,4,1,3,22,10,747.305236816406,410.468994140625,0,1,faces,female,1,0,faces,P,male,VS,I,121,E11,504.107421875
1,1,1,23026,2.13671875,0.203125,5,0,7,37,12,954.927062988281,145.957229614258,0,1,faces,male,1,0,faces,P,male,VS,I,121,E11,504.107421875
0,1,0,23027,2.392578125,0.1640625,6,0,13,74,13,1384.69116210938,213.446319580078,0,1,faces,male,1,0,faces,P,male,VS,I,121,E11,504.107421875
2,1,1,23028,2.638671875,0.228515625,7,0,7,37,14,964.241394042969,154.081436157227,0,1,faces,male,1,0,faces,P,male,VS,I,121,E11,504.107421875
0,1,0,23043,0.984375,0.21875,1,1,2,6,1,560.976501464844,661.62548828125,0,1,objects,small,0,1,faces,A,female,VS,I,123,E11,512.505859375
0,1,0,23044,1.23828125,0.158203125,2,1,4,15,2,657.485534667969,663.053466796875,0,1,objects,big,0,1,faces,A,female,VS,I,123,E11,512.505859375
0,1,0,23046,1.58984375,0.181640625,3,1,1,1,4,569.411743164062,176.080535888672,0,1,faces,female,0,1,faces,A,female,VS,I,123,E11,512.505859375
