refix,pretarget,multifix,urevent,tonset,dur_added,rank,first_rank,stposrel,stposabs,n,x,y,istarget,isdistractor,distractor_cat,ditractor_atr,trial_targetseen,trial_correct,trial_cat,trial_resp,trial_atr,trial_type,trial_cattype,trial_number,trial_subject,trial_bgn_latency
0,1,1,23569,0.26953125,0.107421875,1,1,8,29,2,819.449829101562,246.919174194336,0,1,objects,big,0,0,faces,A,female,VS,I,1,E12,0.201171875
1,1,0,23571,0.64453125,0.408203125,2,1,10,37,4,950.28515625,126.268531799316,0,1,faces,female,0,0,faces,A,female,VS,I,1,E12,0.201171875
0,1,0,23572,1.13671875,0.138671875,3,1,2,4,5,594.526000976562,463.024200439453,0,1,objects,small,0,0,faces,A,female,VS,I,1,E12,0.201171875
0,1,0,23573,1.298828125,0.134765625,4,1,4,13,6,632.006652832031,446.062103271484,0,1,objects,big,0,0,faces,A,female,VS,I,1,E12,0.201171875
0,1,1,23574,1.501953125,0.11328125,5,0,9,33,7,831.97119140625,622.359313964844,0,1,faces,female,0,0,faces,A,female,VS,I,1,E12,0.201171875
2,1,1,23577,2.2734375,0.12890625,6,0,10,37,10,967.640563964844,127.238960266113,0,1,faces,female,0,0,faces,A,female,VS,I,1,E12,0.201171875
1,1,0,23579,3.36328125,0.201171875,7,0,5,14,12,649.051330566406,579.443725585938,0,1,faces,female,0,0,faces,A,female,VS,I,1,E12,0.201171875
0,1,1,23581,3.7265625,0.154296875,8,0,6,15,14,657.843688964844,594.358032226562,0,1,faces,male,0,0,faces,A,female,VS,I,1,E12,0.201171875
2,1,0,23582,3.9765625,0.3671875,9,0,5,14,15,638.057739257812,536.16064453125,0,1,faces,female,0,0,faces,A,female,VS,I,1,E12,0.201171875
0,1,0,23602,0.21875,0.1328125,1,1,6,42,1,983.305236816406,603.583068847656,0,1,faces,female,1,1,objects,P,big,VS,O,2,E12,4.400390625
1,1,0,23603,0.375,0.1328125,2,1,5,41,2,950.95361328125,572.575927734375,0,1,faces,male,1,1,objects,P,big,VS,O,2,E12,4.400390625
0,1,0,23605,0.716796875,0.1171875,3,1,2,10,4,626.920715332031,130.689559936523,0,1,faces,male,1,1,objects,P,big,VS,O,2,E12,4.400390625
0,1,0,23607,1.037109375,0.203125,4,1,1,5,6,542.168212890625,535.508850097656,0,1,objects,big,1,1,objects,P,big,VS,O,2,E12,4.400390625
0,1,0,23608,1.3125,0.291015625,5,0,3,25,7,768.621398925781,745.078674316406,0,1,objects,small,1,1,objects,P,big,VS,O,2,E12,4.400390625
0,1,1,23609,1.6875,0.109375,6,0,15,80,8,1330.06359863281,816.8525390625,0,1,objects,big,1,1,objects,P,big,VS,O,2,E12,4.400390625
0,1,0,23612,2.380859375,0.146484375,7,0,13,66,11,1255.697265625,332.087005615234,0,1,objects,small,1,1,objects,P,big,VS,O,2,E12,4.400390625
0,1,1,23616,3.046875,0.173828125,8,0,7,43,15,967.951538085938,736.072448730469,0,1,faces,female,1,1,objects,P,big,VS,O,2,E12,4.400390625
2,1,0,23617,3.271484375,0.162109375,9,0,5,41,16,949.3828125,582.877563476562,0,1,faces,male,1,1,objects,P,big,VS,O,2,E12,4.400390625
0,0,1,23618,3.4921875,0.318359375,10,0,11,58,17,1132.54638671875,428.59912109375,1,0,NaN,NaN,1,1,objects,P,big,VS,O,2,E12,4.400390625
0,1,0,23643,0.791015625,0.244140625,1,1,4,12,4,642.138610839844,315.544494628906,0,1,objects,big,0,1,faces,A,female,EX,F,3,E12,8.599609375
0,1,1,23644,1.08984375,0.1328125,2,1,3,10,5,630.336669921875,142.494064331055,0,1,faces,male,0,1,faces,A,female,EX,F,3,E12,8.599609375
0,1,0,23647,1.6796875,0.26171875,3,1,13,74,8,1334.46813964844,247.140975952148,0,1,faces,female,0,1,faces,A,female,EX,F,3,E12,8.599609375
0,1,1,23650,2.341796875,0.12109375,4,1,11,63,11,1163.69848632812,911.799499511719,0,1,faces,female,0,1,faces,A,female,EX,F,3,E12,8.599609375
0,1,1,23653,2.880859375,0.25390625,5,0,6,27,14,739.751892089844,922.332153320312,0,1,faces,female,0,1,faces,A,female,EX,F,3,E12,8.599609375
0,1,0,23654,3.1875,0.234375,6,0,8,34,15,838.843994140625,720.33984375,0,1,faces,female,0,1,faces,A,female,EX,F,3,E12,8.599609375
0,1,1,23656,3.62109375,0.4140625,7,0,2,5,17,534.980407714844,529.705505371094,0,1,objects,small,0,1,faces,A,female,EX,F,3,E12,8.599609375
0,1,0,23676,0.423828125,0.125,1,1,11,57,2,1126.28894042969,353.212615966797,0,1,faces,female,1,1,objects,P,small,VS,O,4,E12,12.798828125
1,1,1,23677,0.6015625,0.16796875,2,1,5,39,3,973.548522949219,309.158599853516,1,0,NaN,NaN,1,1,objects,P,small,VS,O,4,E12,12.798828125
0,0,1,23679,1.3515625,0.205078125,3,1,4,29,5,812.424560546875,211.886779785156,0,1,faces,male,1,1,objects,P,small,VS,O,4,E12,12.798828125
2,0,1,23681,1.802734375,0.603515625,4,1,5,39,7,930.610046386719,349.81005859375,1,0,NaN,NaN,1,1,objects,P,small,VS,O,4,E12,12.798828125
0,0,1,23683,2.599609375,0.138671875,5,0,9,55,9,1136.595703125,182.261611938477,0,1,faces,male,1,1,objects,P,small,VS,O,4,E12,12.798828125
0,0,0,23685,2.962890625,0.19140625,6,0,10,56,11,1122.17883300781,248.845657348633,0,1,objects,small,1,1,objects,P,small,VS,O,4,E12,12.798828125
1,0,0,23687,3.390625,0.19921875,7,0,6,44,13,939.588989257812,857.378601074219,0,1,objects,big,1,1,objects,P,small,VS,O,4,E12,12.798828125
0,0,0,23688,3.626953125,0.126953125,8,0,7,45,14,938.278442382812,908.840515136719,0,1,faces,male,1,1,objects,P,small,VS,O,4,E12,12.798828125
2,0,0,23689,3.798828125,0.380859375,9,0,6,44,15,940.281005859375,831.273986816406,0,1,objects,big,1,1,objects,P,small,VS,O,4,E12,12.798828125
0,1,0,23708,0.23828125,0.1796875,1,1,4,22,1,751.915771484375,411.775726318359,0,1,faces,male,0,1,faces,A,male,EX,F,5,E12,16.998046875
0,1,0,23710,0.654296875,0.171875,2,1,7,29,3,843.903869628906,240.262405395508,0,1,faces,male,0,1,faces,A,male,EX,F,5,E12,16.998046875
0,1,1,23711,0.876953125,0.404296875,3,1,3,19,4,722.609252929688,134.368423461914,0,1,objects,big,0,1,faces,A,male,EX,F,5,E12,16.998046875
0,1,1,23713,1.646484375,0.1796875,4,1,15,75,6,1342.4599609375,346.178497314453,0,1,objects,big,0,1,faces,A,male,EX,F,5,E12,16.998046875
0,1,0,23715,2.0859375,0.291015625,5,0,14,73,8,1334.82507324219,124.756576538086,0,1,faces,female,0,1,faces,A,male,EX,F,5,E12,16.998046875
0,1,0,23717,2.62890625,0.1640625,6,0,8,36,10,832.181945800781,922.444396972656,0,1,faces,male,0,1,faces,A,male,EX,F,5,E12,16.998046875
0,1,0,23718,2.83203125,0.23046875,7,0,6,27,11,730.903747558594,927.92041015625,0,1,faces,female,0,1,faces,A,male,EX,F,5,E12,16.998046875
0,1,0,23719,3.10546875,0.193359375,8,0,5,26,12,725.855834960938,836.29736328125,0,1,faces,female,0,1,faces,A,male,EX,F,5,E12,16.998046875
0,1,1,23721,3.48828125,0.169921875,9,0,10,40,14,938.795959472656,451.139953613281,0,1,faces,male,0,1,faces,A,male,EX,F,5,E12,16.998046875
0,1,1,23722,3.732421875,0.109375,10,0,2,13,15,680.713012695312,415.07568359375,0,1,objects,small,0,1,faces,A,male,EX,F,5,E12,16.998046875
0,1,0,23742,0.5,0.125,1,1,6,29,3,850.094177246094,235.328979492188,0,1,faces,male,1,1,faces,P,male,VS,I,6,E12,21.197265625
0,1,1,23743,0.712890625,0.15234375,2,1,2,8,4,585.116333007812,849.222534179688,0,1,faces,female,1,1,faces,P,male,VS,I,6,E12,21.197265625
0,1,0,23745,1.18359375,0.130859375,3,1,8,44,6,959.110961914062,853.197875976562,0,1,faces,female,1,1,faces,P,male,VS,I,6,E12,21.197265625
0,1,0,23746,1.3671875,0.123046875,4,1,10,52,7,1051.18115234375,763.402893066406,0,1,faces,female,1,1,faces,P,male,VS,I,6,E12,21.197265625
0,1,0,23747,1.525390625,0.134765625,5,0,11,53,8,1061.14245605469,812.830200195312,0,1,faces,male,1,1,faces,P,male,VS,I,6,E12,21.197265625
1,1,1,23749,1.87109375,0.1484375,6,0,12,56,10,1139.09130859375,235.597686767578,1,0,NaN,NaN,1,1,faces,P,male,VS,I,6,E12,21.197265625
0,1,1,23750,2.072265625,0.123046875,7,0,9,48,11,1071.07702636719,324.787384033203,0,1,faces,male,1,1,faces,P,male,VS,I,6,E12,21.197265625
2,0,0,23752,2.373046875,0.294921875,8,0,12,56,13,1127.00268554688,239.825408935547,1,0,NaN,NaN,1,1,faces,P,male,VS,I,6,E12,21.197265625
0,0,0,23753,2.751953125,0.275390625,9,0,15,78,14,1354.00903320312,644.754211425781,0,1,faces,male,1,1,faces,P,male,VS,I,6,E12,21.197265625
0,0,0,23754,3.10546875,0.162109375,10,0,14,72,15,1260.05383300781,927.97607421875,0,1,objects,small,1,1,faces,P,male,VS,I,6,E12,21.197265625
0,0,1,23755,3.3515625,0.125,11,0,13,67,16,1234.33581542969,418.843475341797,0,1,faces,female,1,1,faces,P,male,VS,I,6,E12,21.197265625
3,0,0,23757,3.658203125,0.205078125,12,0,12,56,18,1128.78649902344,240.682754516602,1,0,NaN,NaN,1,1,faces,P,male,VS,I,6,E12,21.197265625
0,0,0,23758,3.955078125,0.1171875,13,0,4,17,19,666.881958007812,858.858520507812,0,1,objects,big,1,1,faces,P,male,VS,I,6,E12,21.197265625
1,1,0,23775,0.2734375,0.12890625,1,1,9,42,1,949.949401855469,621.742431640625,0,1,faces,female,1,1,objects,P,big,VS,O,7,E12,25.396484375
0,1,0,23776,0.478515625,0.10546875,2,1,6,16,2,683.768981933594,745.251281738281,0,1,faces,male,1,1,objects,P,big,VS,O,7,E12,25.396484375
0,1,0,23777,0.67578125,0.142578125,3,1,2,2,3,525.857238769531,248.86344909668,0,1,faces,male,1,1,objects,P,big,VS,O,7,E12,25.396484375
0,1,0,23778,0.87890625,0.16796875,4,1,3,4,4,555.605895996094,435.438903808594,0,1,objects,big,1,1,objects,P,big,VS,O,7,E12,25.396484375
0,1,0,23779,1.0859375,0.126953125,5,0,4,5,5,550.506652832031,521.604248046875,0,1,faces,female,1,1,objects,P,big,VS,O,7,E12,25.396484375
0,1,0,23780,1.306640625,0.203125,6,0,15,80,6,1325.34313964844,799.473754882812,0,1,faces,male,1,1,objects,P,big,VS,O,7,E12,25.396484375
0,1,0,23781,1.55078125,0.22265625,7,0,12,71,7,1235.59448242188,830.570678710938,0,1,objects,small,1,1,objects,P,big,VS,O,7,E12,25.396484375
2,1,0,23783,1.998046875,0.1640625,8,0,9,42,9,947.722351074219,640.341979980469,0,1,faces,female,1,1,objects,P,big,VS,O,7,E12,25.396484375
1,0,0,23784,2.24609375,0.21875,9,0,7,29,10,823.250122070312,234.902603149414,1,0,NaN,NaN,1,1,objects,P,big,VS,O,7,E12,25.396484375
2,0,0,23786,2.712890625,0.220703125,10,0,7,29,12,856.885986328125,238.916656494141,1,0,NaN,NaN,1,1,objects,P,big,VS,O,7,E12,25.396484375
0,1,0,23801,0.26171875,0.107421875,1,1,5,31,2,858.606262207031,425.273010253906,0,1,faces,male,1,0,faces,P,male,VS,F,8,E12,29.595703125
0,1,0,23802,0.416015625,0.126953125,2,1,4,30,3,841.742797851562,313.227142333984,0,1,objects,big,1,0,faces,P,male,VS,F,8,E12,29.595703125
0,1,0,23803,0.58984375,0.185546875,3,1,8,38,4,957.665405273438,241.341522216797,0,1,faces,male,1,0,faces,P,male,VS,F,8,E12,29.595703125
0,1,1,23804,0.8203125,0.12890625,4,1,9,39,5,974.855163574219,360.274749755859,0,1,faces,female,1,0,faces,P,male,VS,F,8,E12,29.595703125
0,1,0,23806,1.552734375,0.255859375,5,0,6,33,7,850.5576171875,667.243347167969,0,1,faces,female,1,0,faces,P,male,VS,F,8,E12,29.595703125
0,1,0,23808,2.0234375,0.146484375,6,0,2,15,9,640.338134765625,632.789916992188,0,1,objects,big,1,0,faces,P,male,VS,F,8,E12,29.595703125
0,1,0,23809,2.25,0.201171875,7,0,10,45,10,964.050720214844,928.5546875,0,1,objects,small,1,0,faces,P,male,VS,F,8,E12,29.595703125
0,1,0,23810,2.498046875,0.34375,8,0,11,54,11,1044.28125,932.177795410156,0,1,faces,male,1,0,faces,P,male,VS,F,8,E12,29.595703125
0,1,0,23811,2.88671875,0.251953125,9,0,12,63,12,1140.51892089844,921.349426269531,0,1,faces,male,1,0,faces,P,male,VS,F,8,E12,29.595703125
0,1,1,23812,3.212890625,0.125,10,0,13,69,13,1255.30676269531,668.915588378906,1,0,NaN,NaN,1,0,faces,P,male,VS,F,8,E12,29.595703125
0,1,0,23836,0.431640625,0.154296875,1,1,7,42,2,944.512268066406,651.049682617188,0,1,faces,male,0,0,faces,A,male,EX,I,9,E12,33.794921875
0,1,0,23837,0.6640625,0.146484375,2,1,2,5,3,590.017028808594,559.992126464844,0,1,objects,small,0,0,faces,A,male,EX,I,9,E12,33.794921875
0,1,1,23838,0.8359375,0.19140625,3,1,5,14,4,646.617065429688,537.154602050781,0,1,faces,male,0,0,faces,A,male,EX,I,9,E12,33.794921875
0,1,1,23840,1.283203125,0.107421875,4,1,4,11,6,618.747680664062,197.778533935547,0,1,faces,female,0,0,faces,A,male,EX,I,9,E12,33.794921875
0,1,0,23842,1.626953125,0.150390625,5,0,1,2,8,541.368469238281,217.286376953125,0,1,faces,male,0,0,faces,A,male,EX,I,9,E12,33.794921875
0,1,1,23845,2.267578125,0.1171875,6,0,9,59,11,1191.97985839844,537.013305664062,0,1,objects,big,0,0,faces,A,male,EX,I,9,E12,33.794921875
0,1,1,23847,2.908203125,0.3828125,7,0,10,62,13,1145.47900390625,816.732055664062,0,1,objects,small,0,0,faces,A,male,EX,I,9,E12,33.794921875
0,1,0,23849,3.56640625,0.259765625,8,0,13,70,15,1247.42602539062,739.802368164062,0,1,faces,female,0,0,faces,A,male,EX,I,9,E12,33.794921875
0,1,0,23850,3.876953125,0.212890625,9,0,15,78,16,1347.39953613281,636.335388183594,0,1,faces,male,0,0,faces,A,male,EX,I,9,E12,33.794921875
1,1,1,23871,0.39453125,0.142578125,1,1,9,31,3,834.077453613281,451.902069091797,0,1,faces,male,0,1,faces,A,male,VS,I,10,E12,37.994140625
0,1,0,23873,0.8125,0.1640625,2,1,11,47,5,1049.69567871094,234.743835449219,0,1,objects,big,0,1,faces,A,male,VS,I,10,E12,37.994140625
0,1,0,23874,1.048828125,0.21875,3,1,14,67,6,1252.5654296875,437.514404296875,0,1,faces,female,0,1,faces,A,male,VS,I,10,E12,37.994140625
0,1,1,23876,1.5234375,0.119140625,4,1,13,61,8,1163.958984375,759.359191894531,0,1,faces,female,0,1,faces,A,male,VS,I,10,E12,37.994140625
0,1,0,23878,1.9453125,0.150390625,5,0,15,71,10,1258.68566894531,829.382568359375,0,1,faces,female,0,1,faces,A,male,VS,I,10,E12,37.994140625
0,1,1,23879,2.171875,0.115234375,6,0,10,43,11,929.636291503906,735.895812988281,0,1,faces,male,0,1,faces,A,male,VS,I,10,E12,37.994140625
0,1,1,23881,2.578125,0.140625,7,0,2,8,13,549.639587402344,874.956115722656,0,1,faces,male,0,1,faces,A,male,VS,I,10,E12,37.994140625
0,1,0,23884,3.36328125,0.166015625,8,0,5,14,16,675.624572753906,520.483703613281,0,1,objects,big,0,1,faces,A,male,VS,I,10,E12,37.994140625
2,1,1,23885,3.580078125,0.14453125,9,0,9,31,17,827.397155761719,428.131134033203,0,1,faces,male,0,1,faces,A,male,VS,I,10,E12,37.994140625
0,1,0,23908,0.474609375,0.1015625,1,1,5,32,2,847.566345214844,544.966064453125,0,1,objects,big,1,1,faces,P,female,VS,I,11,E12,42.193359375
0,1,0,23909,0.658203125,0.158203125,2,1,9,55,3,1146.29382324219,116.961585998535,0,1,faces,female,1,1,faces,P,female,VS,I,11,E12,42.193359375
0,1,0,23910,0.96484375,0.169921875,3,1,4,29,4,864.352844238281,221.354904174805,0,1,faces,male,1,1,faces,P,female,VS,I,11,E12,42.193359375
0,1,0,23911,1.208984375,0.142578125,4,1,10,57,5,1151.255859375,335.504547119141,0,1,faces,male,1,1,faces,P,female,VS,I,11,E12,42.193359375
0,1,1,23914,1.771484375,0.11328125,5,0,13,69,8,1252.61499023438,633.473571777344,0,1,faces,female,1,1,faces,P,female,VS,I,11,E12,42.193359375
0,1,0,23915,1.94921875,0.1328125,6,0,11,62,9,1163.8876953125,852.422119140625,0,1,faces,male,1,1,faces,P,female,VS,I,11,E12,42.193359375
0,1,0,23916,2.123046875,0.228515625,7,0,12,63,10,1132.421875,931.946716308594,0,1,faces,female,1,1,faces,P,female,VS,I,11,E12,42.193359375
0,1,0,23918,2.603515625,0.134765625,8,0,2,15,12,690.947082519531,601.846923828125,0,1,faces,female,1,1,faces,P,female,VS,I,11,E12,42.193359375
0,0,1,23919,2.78125,1.0625,9,0,1,14,13,648.115905761719,559.611206054688,1,0,NaN,NaN,1,1,faces,P,female,VS,I,11,E12,42.193359375
0,1,0,23937,0.234375,0.130859375,1,1,13,49,1,1052.60949707031,431.41748046875,0,1,faces,male,0,1,objects,A,big,VS,O,12,E12,46.392578125
1,1,0,23938,0.439453125,0.259765625,2,1,5,21,2,770.672729492188,332.290710449219,0,1,objects,big,0,1,objects,A,big,VS,O,12,E12,46.392578125
0,1,0,23939,0.7734375,0.203125,3,1,3,5,3,555.682250976562,557.657958984375,0,1,objects,big,0,1,objects,A,big,VS,O,12,E12,46.392578125
0,1,0,23941,1.1953125,0.138671875,4,1,7,26,5,737.016784667969,850.497497558594,0,1,faces,male,0,1,objects,A,big,VS,O,12,E12,46.392578125
0,1,0,23942,1.3984375,0.24609375,5,0,11,43,6,936.882751464844,726.0556640625,0,1,objects,big,0,1,objects,A,big,VS,O,12,E12,46.392578125
0,1,0,23944,1.857421875,0.24609375,6,0,1,2,8,531.406921386719,249.013336181641,0,1,objects,small,0,1,objects,A,big,VS,O,12,E12,46.392578125
1,1,0,23945,2.1796875,0.1015625,7,0,9,30,9,906.186767578125,335.167999267578,0,1,faces,female,0,1,objects,A,big,VS,O,12,E12,46.392578125
1,1,0,23946,2.328125,0.189453125,8,0,12,47,10,1040.18078613281,270.563598632812,0,1,objects,small,0,1,objects,A,big,VS,O,12,E12,46.392578125
2,1,0,23947,2.595703125,0.12109375,9,0,9,30,11,836.18603515625,318.834564208984,0,1,faces,female,0,1,objects,A,big,VS,O,12,E12,46.392578125
2,1,0,23948,2.76171875,0.109375,10,0,5,21,12,744.151672363281,330.67529296875,0,1,objects,big,0,1,objects,A,big,VS,O,12,E12,46.392578125
0,1,1,23949,2.955078125,0.142578125,11,0,14,64,13,1257.84790039062,140.369506835938,0,1,faces,male,0,1,objects,A,big,VS,O,12,E12,46.392578125
0,1,0,23951,3.30078125,0.1796875,12,0,15,77,15,1335.8076171875,518.837768554688,0,1,faces,female,0,1,objects,A,big,VS,O,12,E12,46.392578125
2,1,0,23953,3.716796875,0.509765625,13,0,12,47,17,1038.63647460938,232.769897460938,0,1,objects,small,0,1,objects,A,big,VS,O,12,E12,46.392578125
1,1,0,23968,0.296875,0.130859375,1,1,6,31,2,826.484252929688,462.041046142578,0,1,faces,male,0,0,faces,P,female,VS,I,13,E12,50.591796875
0,1,0,23969,0.474609375,0.203125,2,1,5,22,3,755.771484375,424.158752441406,0,1,faces,male,0,0,faces,P,female,VS,I,13,E12,50.591796875
2,1,1,23973,1.228515625,0.146484375,3,1,6,31,7,863.980590820312,427.746246337891,0,1,faces,male,0,0,faces,P,female,VS,I,13,E12,50.591796875
0,1,0,23974,1.435546875,0.236328125,4,1,9,41,8,980.106262207031,543.880981445312,0,1,faces,male,0,0,faces,P,female,VS,I,13,E12,50.591796875
0,1,1,23975,1.7421875,0.119140625,5,0,13,69,9,1249.9169921875,619.271057128906,0,1,objects,small,0,0,faces,P,female,VS,I,13,E12,50.591796875
0,1,0,23977,2.03515625,0.185546875,6,0,14,70,11,1259.693359375,722.599426269531,0,1,faces,male,0,0,faces,P,female,VS,I,13,E12,50.591796875
0,1,0,23978,2.3046875,0.17578125,7,0,15,75,12,1355.36645507812,339.233276367188,0,1,faces,female,0,0,faces,P,female,VS,I,13,E12,50.591796875
0,1,0,23979,2.57421875,0.205078125,8,0,8,37,13,920.652282714844,108.656448364258,0,1,objects,big,0,0,faces,P,female,VS,I,13,E12,50.591796875
0,1,1,23981,3.01953125,0.26171875,9,0,3,8,15,526.7314453125,839.479919433594,0,1,faces,male,0,0,faces,P,female,VS,I,13,E12,50.591796875
0,1,0,23983,3.521484375,0.1015625,10,0,11,63,17,1135.53686523438,910.231872558594,0,1,objects,big,0,0,faces,P,female,VS,I,13,E12,50.591796875
0,1,1,23984,3.689453125,0.12109375,11,0,10,45,18,918.435546875,910.087280273438,0,1,faces,male,0,0,faces,P,female,VS,I,13,E12,50.591796875
0,1,0,24003,0.248046875,0.111328125,1,1,6,25,1,749.920349121094,729.005249023438,0,1,faces,male,0,1,objects,A,small,VS,O,14,E12,54.791015625
0,1,0,24005,0.591796875,0.42578125,2,1,8,38,3,938.306091308594,228.30078125,0,1,objects,big,0,1,objects,A,small,VS,O,14,E12,54.791015625
1,1,0,24007,1.28515625,0.279296875,3,1,5,19,5,713.528076171875,106.073905944824,0,1,faces,female,0,1,objects,A,small,VS,O,14,E12,54.791015625
0,1,1,24008,1.634765625,0.12109375,4,1,2,3,6,556.726440429688,293.914306640625,0,1,faces,female,0,1,objects,A,small,VS,O,14,E12,54.791015625
0,1,1,24012,2.666015625,0.16015625,5,0,10,52,10,1084.18359375,706.202819824219,0,1,faces,female,0,1,objects,A,small,VS,O,14,E12,54.791015625
0,1,1,24015,3.130859375,0.177734375,6,0,13,75,13,1363.25537109375,345.652954101562,0,1,faces,male,0,1,objects,A,small,VS,O,14,E12,54.791015625
2,1,0,24018,3.716796875,0.484375,7,0,5,19,16,727.498229980469,119.863388061523,0,1,faces,female,0,1,objects,A,small,VS,O,14,E12,54.791015625
0,1,0,24032,0.533203125,0.1640625,1,1,6,20,2,728.626586914062,234.569961547852,0,1,faces,female,0,1,objects,A,small,EX,O,15,E12,58.990234375
0,1,1,24033,0.771484375,0.13671875,2,1,2,14,3,654.145568847656,565.819763183594,0,1,faces,male,0,1,objects,A,small,EX,O,15,E12,58.990234375
0,1,1,24035,1.119140625,0.14453125,3,1,3,15,5,645.83447265625,652.142395019531,0,1,faces,female,0,1,objects,A,small,EX,O,15,E12,58.990234375
0,1,1,24037,1.501953125,0.119140625,4,1,1,8,7,555.909851074219,835.669250488281,0,1,faces,female,0,1,objects,A,small,EX,O,15,E12,58.990234375
1,1,0,24039,2.04296875,0.111328125,5,0,5,18,9,696.93603515625,919.0703125,0,1,faces,female,0,1,objects,A,small,EX,O,15,E12,58.990234375
0,1,0,24040,2.185546875,0.17578125,6,0,7,27,10,731.447937011719,935.082824707031,0,1,faces,female,0,1,objects,A,small,EX,O,15,E12,58.990234375
2,1,0,24041,2.40234375,0.326171875,7,0,5,18,11,633.415710449219,932.90673828125,0,1,faces,female,0,1,objects,A,small,EX,O,15,E12,58.990234375
0,1,0,24042,2.77734375,0.23046875,8,0,4,17,12,637.232299804688,831.009948730469,0,1,faces,male,0,1,objects,A,small,EX,O,15,E12,58.990234375
0,1,0,24043,3.0859375,0.28515625,9,0,11,53,13,1052.24108886719,840.596130371094,0,1,faces,male,0,1,objects,A,small,EX,O,15,E12,58.990234375
0,1,0,24044,3.427734375,0.1484375,10,0,9,42,14,919.468627929688,650.24169921875,0,1,objects,small,0,1,objects,A,small,EX,O,15,E12,58.990234375
0,1,0,24045,3.62109375,0.16796875,11,0,8,33,15,847.650451660156,636.4697265625,0,1,objects,big,0,1,objects,A,small,EX,O,15,E12,58.990234375
0,1,0,24046,3.84375,0.177734375,12,0,10,52,16,1032.96923828125,736.025268554688,0,1,objects,small,0,1,objects,A,small,EX,O,15,E12,58.990234375
0,1,0,24061,0.45703125,0.140625,1,1,6,25,2,795.095764160156,732.337768554688,0,1,faces,male,1,1,faces,P,female,VS,F,16,E12,63.189453125
0,1,0,24063,0.84765625,0.1640625,2,1,7,27,4,744.678039550781,919.887268066406,0,1,faces,male,1,1,faces,P,female,VS,F,16,E12,63.189453125
0,1,0,24064,1.08203125,0.1953125,3,1,10,54,5,1036.07946777344,934.48291015625,0,1,faces,female,1,1,faces,P,female,VS,F,16,E12,63.189453125
0,1,0,24066,1.609375,0.205078125,4,1,11,60,7,1163.83654785156,637.307800292969,0,1,faces,female,1,1,faces,P,female,VS,F,16,E12,63.189453125
0,0,1,24067,1.861328125,0.431640625,5,0,13,68,8,1252.3759765625,549.860412597656,1,0,NaN,NaN,1,1,faces,P,female,VS,F,16,E12,63.189453125
0,0,0,24070,3.1953125,0.1484375,6,0,4,12,11,630.783752441406,334.681488037109,0,1,objects,big,1,1,faces,P,female,VS,F,16,E12,63.189453125
0,0,1,24071,3.42578125,0.1015625,7,0,2,7,12,511.605285644531,693.376708984375,0,1,faces,male,1,1,faces,P,female,VS,F,16,E12,63.189453125
0,0,0,24073,3.845703125,0.177734375,8,0,3,9,14,510.503601074219,920.556762695312,0,1,objects,big,1,1,faces,P,female,VS,F,16,E12,63.189453125
0,1,0,24090,0.25390625,0.154296875,1,1,9,51,2,1014.00128173828,603.493286132812,0,1,objects,small,0,1,faces,A,female,VS,F,17,E12,67.388671875
0,1,0,24092,0.60546875,0.203125,2,1,14,76,4,1334.02722167969,453.847229003906,0,1,faces,female,0,1,faces,A,female,VS,F,17,E12,67.388671875
0,1,1,24093,0.87890625,0.1171875,3,1,10,64,5,1306.78369140625,152.076263427734,0,1,faces,female,0,1,faces,A,female,VS,F,17,E12,67.388671875
0,1,0,24095,1.216796875,0.1640625,4,1,13,74,7,1325.53833007812,221.120910644531,0,1,faces,male,0,1,faces,A,female,VS,F,17,E12,67.388671875
1,1,1,24096,1.466796875,0.103515625,5,0,5,32,8,811.536010742188,518.841247558594,0,1,faces,male,0,1,faces,A,female,VS,F,17,E12,67.388671875
0,1,1,24098,1.80859375,0.193359375,6,0,1,6,10,511.955139160156,677.186950683594,0,1,faces,male,0,1,faces,A,female,VS,F,17,E12,67.388671875
0,1,1,24100,2.130859375,0.12890625,7,0,3,9,12,519.074645996094,905.641479492188,0,1,faces,male,0,1,faces,A,female,VS,F,17,E12,67.388671875
1,1,1,24102,2.439453125,0.16015625,8,0,11,72,14,1258.595703125,932.656799316406,0,1,faces,male,0,1,faces,A,female,VS,F,17,E12,67.388671875
0,1,0,24104,2.869140625,0.10546875,9,0,6,41,16,994.606994628906,588.247009277344,0,1,objects,small,0,1,faces,A,female,VS,F,17,E12,67.388671875
2,1,0,24106,3.166015625,0.1328125,10,0,11,72,18,1252.88549804688,924.39794921875,0,1,faces,male,0,1,faces,A,female,VS,F,17,E12,67.388671875
0,1,0,24107,3.33984375,0.146484375,11,0,15,81,19,1348.38952636719,921.550415039062,0,1,faces,female,0,1,faces,A,female,VS,F,17,E12,67.388671875
2,1,0,24109,3.734375,0.16015625,12,0,5,32,21,863.757141113281,529.108764648438,0,1,faces,male,0,1,faces,A,female,VS,F,17,E12,67.388671875
1,1,0,24123,0.41796875,0.2265625,1,1,5,22,3,740.649230957031,420.917053222656,0,1,faces,male,1,0,faces,P,female,VS,F,18,E12,71.587890625
1,1,0,24124,0.798828125,0.1328125,2,1,10,48,4,1034.25048828125,362.751495361328,0,1,faces,female,1,0,faces,P,female,VS,F,18,E12,71.587890625
0,1,0,24125,1.00390625,0.203125,3,1,15,74,5,1324.08251953125,256.314331054688,0,1,faces,male,1,0,faces,P,female,VS,F,18,E12,71.587890625
0,1,0,24126,1.23046875,0.181640625,4,1,14,65,6,1258.32104492188,256.736999511719,0,1,faces,female,1,0,faces,P,female,VS,F,18,E12,71.587890625
1,1,1,24128,1.6328125,0.16796875,5,0,11,53,8,1044.99230957031,858.428588867188,1,0,NaN,NaN,1,0,faces,P,female,VS,F,18,E12,71.587890625
0,1,0,24129,1.876953125,0.25,6,0,7,26,9,738.269165039062,850.994262695312,0,1,faces,female,1,0,faces,P,female,VS,F,18,E12,71.587890625
2,0,1,24130,2.197265625,0.478515625,7,0,11,53,10,1036.57116699219,840.352478027344,1,0,NaN,NaN,1,0,faces,P,female,VS,F,18,E12,71.587890625
0,0,0,24132,2.974609375,0.283203125,8,0,12,55,12,1122.59558105469,155.122421264648,0,1,faces,female,1,0,faces,P,female,VS,F,18,E12,71.587890625
2,0,0,24134,3.46875,0.189453125,9,0,5,22,14,714.533752441406,437.773162841797,0,1,faces,male,1,0,faces,P,female,VS,F,18,E12,71.587890625
2,0,0,24135,3.732421875,0.240234375,10,0,10,48,15,1034.45263671875,368.043640136719,0,1,faces,female,1,0,faces,P,female,VS,F,18,E12,71.587890625
0,1,1,24150,0.92578125,0.177734375,1,1,6,36,4,837.139221191406,922.84228515625,0,1,faces,female,1,1,faces,P,female,VS,F,19,E12,75.787109375
0,1,0,24152,1.33203125,0.189453125,2,1,4,31,6,830.2451171875,465.251403808594,0,1,objects,small,1,1,faces,P,female,VS,F,19,E12,75.787109375
0,1,0,24153,1.560546875,0.140625,3,1,5,32,7,833.185180664062,537.804870605469,0,1,faces,male,1,1,faces,P,female,VS,F,19,E12,75.787109375
0,1,0,24155,1.904296875,0.19140625,4,1,2,7,9,534.491333007812,733.076110839844,0,1,faces,female,1,1,faces,P,female,VS,F,19,E12,75.787109375
1,1,1,24159,2.69921875,0.1328125,5,0,8,46,13,1032.54907226562,151.628814697266,1,0,NaN,NaN,1,1,faces,P,female,VS,F,19,E12,75.787109375
0,0,1,24161,3.45703125,0.14453125,6,0,14,74,15,1333.57092285156,216.816543579102,0,1,faces,female,1,1,faces,P,female,VS,F,19,E12,75.787109375
2,0,0,24163,3.822265625,0.171875,7,0,8,46,17,1025.28344726562,142.367126464844,1,0,NaN,NaN,1,1,faces,P,female,VS,F,19,E12,75.787109375
0,1,0,24176,0.544921875,0.17578125,1,1,4,7,4,548.049926757812,772.871337890625,0,1,objects,big,0,0,faces,A,male,VS,F,20,E12,79.986328125
0,1,1,24177,0.810546875,0.126953125,2,1,11,30,5,829.46240234375,305.420867919922,0,1,objects,big,0,0,faces,A,male,VS,F,20,E12,79.986328125
1,1,0,24179,1.119140625,0.158203125,3,1,7,20,7,752.252502441406,224.246627807617,0,1,faces,male,0,0,faces,A,male,VS,F,20,E12,79.986328125
1,1,1,24180,1.34375,0.1171875,4,1,2,2,8,550.049438476562,200.653060913086,0,1,faces,male,0,0,faces,A,male,VS,F,20,E12,79.986328125
2,1,0,24182,1.65234375,0.181640625,5,0,7,20,10,739.328857421875,229.756256103516,0,1,faces,male,0,0,faces,A,male,VS,F,20,E12,79.986328125
0,1,1,24183,1.91796875,0.109375,6,0,14,65,11,1219.59118652344,243.118499755859,0,1,faces,female,0,0,faces,A,male,VS,F,20,E12,79.986328125
3,1,1,24185,2.2890625,0.158203125,7,0,7,20,13,761.381530761719,242.686340332031,0,1,faces,male,0,0,faces,A,male,VS,F,20,E12,79.986328125
0,1,1,24187,3.5078125,0.140625,8,0,3,3,15,531.879943847656,310.278991699219,0,1,objects,small,0,0,faces,A,male,VS,F,20,E12,79.986328125
2,1,0,24189,3.796875,0.267578125,9,0,2,2,17,517.327575683594,235.504531860352,0,1,faces,male,0,0,faces,A,male,VS,F,20,E12,79.986328125
1,1,0,24208,0.375,0.12109375,1,1,7,30,2,834.529296875,382.283416748047,0,1,faces,female,1,0,objects,P,small,VS,O,21,E12,84.185546875
0,1,0,24209,0.544921875,0.134765625,2,1,6,29,3,838.554626464844,282.376007080078,0,1,faces,male,1,0,objects,P,small,VS,O,21,E12,84.185546875
1,1,1,24210,0.73046875,0.1875,3,1,11,48,4,1038.79443359375,327.442749023438,1,0,NaN,NaN,1,0,objects,P,small,VS,O,21,E12,84.185546875
0,0,1,24212,1.3203125,0.142578125,4,1,15,79,6,1338.88452148438,752.537353515625,0,1,faces,male,1,0,objects,P,small,VS,O,21,E12,84.185546875
0,0,0,24214,1.685546875,0.171875,5,0,12,63,8,1144.10803222656,928.493347167969,0,1,faces,male,1,0,objects,P,small,VS,O,21,E12,84.185546875
0,0,0,24215,1.927734375,0.26171875,6,0,8,36,9,848.904846191406,933.962829589844,0,1,objects,big,1,0,objects,P,small,VS,O,21,E12,84.185546875
2,0,1,24216,2.28515625,0.158203125,7,0,7,30,10,841.875549316406,358.400421142578,0,1,faces,female,1,0,objects,P,small,VS,O,21,E12,84.185546875
2,0,1,24218,2.646484375,0.177734375,8,0,11,48,12,1028.15002441406,323.225280761719,1,0,NaN,NaN,1,0,objects,P,small,VS,O,21,E12,84.185546875
0,0,0,24220,3.240234375,0.109375,9,0,5,28,14,854.4228515625,152.776840209961,0,1,objects,small,1,0,objects,P,small,VS,O,21,E12,84.185546875
1,1,1,24239,0.2421875,0.123046875,1,1,10,40,2,1006.49267578125,477.505920410156,0,1,faces,male,0,0,objects,A,big,EX,O,22,E12,88.384765625
0,1,1,24241,0.67578125,0.201171875,2,1,4,11,4,658.647766113281,214.174682617188,0,1,faces,female,0,0,objects,A,big,EX,O,22,E12,88.384765625
0,1,1,24244,1.466796875,0.140625,3,1,2,5,7,521.227783203125,534.981689453125,0,1,faces,male,0,0,objects,A,big,EX,O,22,E12,88.384765625
0,1,0,24246,1.853515625,0.138671875,4,1,8,31,9,865.491271972656,408.71826171875,0,1,objects,small,0,0,objects,A,big,EX,O,22,E12,88.384765625
2,1,1,24247,2.015625,0.134765625,5,0,10,40,10,914.277282714844,441.246612548828,0,1,faces,male,0,0,objects,A,big,EX,O,22,E12,88.384765625
0,1,1,24249,2.509765625,0.16015625,6,0,12,48,12,1050.00866699219,361.268951416016,0,1,faces,female,0,0,objects,A,big,EX,O,22,E12,88.384765625
0,1,1,24251,3.078125,0.12109375,7,0,5,17,14,664.863708496094,802.542114257812,0,1,objects,small,0,0,objects,A,big,EX,O,22,E12,88.384765625
0,1,1,24253,3.4140625,0.2265625,8,0,3,8,16,535.447570800781,838.433410644531,0,1,faces,male,0,0,objects,A,big,EX,O,22,E12,88.384765625
1,1,0,24277,0.29296875,0.1328125,1,1,8,31,2,837.966735839844,440.194091796875,0,1,faces,female,1,1,faces,P,female,VS,I,23,E12,92.583984375
0,1,0,24279,0.677734375,0.146484375,2,1,11,46,4,1075.67370605469,133.649978637695,0,1,faces,female,1,1,faces,P,female,VS,I,23,E12,92.583984375
0,0,0,24280,0.87109375,0.98046875,3,1,14,55,5,1138.59326171875,127.484169006348,1,0,NaN,NaN,1,1,faces,P,female,VS,I,23,E12,92.583984375
0,0,1,24283,2.8671875,0.15625,4,1,1,4,8,538.312255859375,448.901031494141,0,1,faces,female,1,1,faces,P,female,VS,I,23,E12,92.583984375
2,0,0,24284,3.095703125,0.146484375,5,0,8,31,9,844.918334960938,446.622497558594,0,1,faces,female,1,1,faces,P,female,VS,I,23,E12,92.583984375
0,0,0,24285,3.32421875,0.22265625,6,0,6,27,10,722.644897460938,917.571472167969,0,1,objects,small,1,1,faces,P,female,VS,I,23,E12,92.583984375
0,0,1,24286,3.59375,0.140625,7,0,9,35,11,829.879333496094,858.023498535156,0,1,faces,female,1,1,faces,P,female,VS,I,23,E12,92.583984375
1,1,1,24303,0.240234375,0.111328125,1,1,4,32,1,887.362243652344,552.099426269531,0,1,objects,big,0,1,faces,A,female,EX,I,24,E12,96.783203125
0,1,1,24305,0.630859375,0.111328125,2,1,1,1,3,562.538635253906,107.634216308594,0,1,faces,male,0,1,faces,A,female,EX,I,24,E12,96.783203125
0,1,0,24307,0.953125,0.166015625,3,1,7,37,5,968.874877929688,116.49129486084,0,1,objects,small,0,1,faces,A,female,EX,I,24,E12,96.783203125
0,1,0,24308,1.16015625,0.158203125,4,1,8,46,6,1047.63061523438,131.910736083984,0,1,faces,female,0,1,faces,A,female,EX,I,24,E12,96.783203125
0,1,0,24310,1.53515625,0.234375,5,0,12,76,8,1350.22924804688,456.204010009766,0,1,faces,female,0,1,faces,A,female,EX,I,24,E12,96.783203125
0,1,0,24312,2.005859375,0.171875,6,0,15,81,10,1331.06298828125,921.415771484375,0,1,objects,big,0,1,faces,A,female,EX,I,24,E12,96.783203125
0,1,1,24313,2.23046875,0.1875,7,0,14,79,11,1343.38049316406,715.4033203125,0,1,faces,male,0,1,faces,A,female,EX,I,24,E12,96.783203125
0,1,0,24316,2.923828125,0.16015625,8,0,5,34,14,844.818603515625,772.083435058594,0,1,faces,male,0,1,faces,A,female,EX,I,24,E12,96.783203125
0,1,1,24317,3.146484375,0.119140625,9,0,2,7,15,581.649291992188,732.712158203125,0,1,faces,female,0,1,faces,A,female,EX,I,24,E12,96.783203125
2,1,1,24319,3.560546875,0.134765625,10,0,4,32,17,827.545654296875,560.377563476562,0,1,objects,big,0,1,faces,A,female,EX,I,24,E12,96.783203125
0,1,0,24339,0.4609375,0.125,1,1,4,11,2,654.050476074219,243.067260742188,0,1,faces,female,1,1,faces,P,female,VS,F,25,E12,100.982421875
0,1,1,24340,0.662109375,0.1015625,2,1,2,6,3,530.871643066406,644.763916015625,1,0,NaN,NaN,1,1,faces,P,female,VS,F,25,E12,100.982421875
0,1,0,24342,2.56640625,0.134765625,3,1,8,53,5,1059.32568359375,823.609924316406,0,1,faces,male,1,1,faces,P,female,VS,F,25,E12,100.982421875
0,1,0,24343,2.748046875,0.34765625,4,1,5,44,6,951.9208984375,820.799926757812,0,1,faces,male,1,1,faces,P,female,VS,F,25,E12,100.982421875
0,1,1,24345,3.3046875,0.125,5,0,14,77,8,1360.369140625,528.57861328125,0,1,faces,male,1,1,faces,P,female,VS,F,25,E12,100.982421875
1,1,1,24365,0.365234375,0.119140625,1,1,6,39,3,921.849365234375,353.303741455078,0,1,faces,female,0,0,faces,P,female,VS,F,26,E12,105.181640625
0,1,1,24367,0.650390625,0.1015625,2,1,10,66,5,1231.2431640625,326.998657226562,0,1,faces,male,0,0,faces,P,female,VS,F,26,E12,105.181640625
0,1,0,24369,0.958984375,0.125,3,1,8,54,7,1099.19763183594,899.212951660156,0,1,objects,small,0,0,faces,P,female,VS,F,26,E12,105.181640625
0,1,1,24371,1.404296875,0.162109375,4,1,9,56,9,1156.12182617188,203.911331176758,0,1,faces,female,0,0,faces,P,female,VS,F,26,E12,105.181640625
0,1,0,24373,1.97265625,0.203125,5,0,12,70,11,1275.498046875,763.723510742188,0,1,objects,small,0,0,faces,P,female,VS,F,26,E12,105.181640625
0,1,0,24374,2.220703125,0.123046875,6,0,14,79,12,1333.1787109375,751.18212890625,0,1,faces,male,0,0,faces,P,female,VS,F,26,E12,105.181640625
0,1,0,24375,2.380859375,0.1015625,7,0,15,80,13,1347.91784667969,819.162963867188,0,1,faces,male,0,0,faces,P,female,VS,F,26,E12,105.181640625
0,1,0,24376,2.564453125,0.21484375,8,0,4,36,14,839.097778320312,914.705810546875,0,1,faces,female,0,0,faces,P,female,VS,F,26,E12,105.181640625
0,1,1,24377,2.880859375,0.15234375,9,0,1,19,15,753.574401855469,162.194671630859,0,1,faces,female,0,0,faces,P,female,VS,F,26,E12,105.181640625
2,1,0,24380,3.537109375,0.15625,10,0,6,39,18,956.49072265625,355.762176513672,0,1,faces,female,0,0,faces,P,female,VS,F,26,E12,105.181640625
0,1,0,24381,3.73828125,0.126953125,11,0,2,30,19,863.474792480469,339.275573730469,0,1,faces,male,0,0,faces,P,female,VS,F,26,E12,105.181640625
3,1,0,24382,3.908203125,0.35546875,12,0,6,39,20,961.794616699219,328.616058349609,0,1,faces,female,0,0,faces,P,female,VS,F,26,E12,105.181640625
1,1,0,24402,0.42578125,0.140625,1,1,3,16,2,677.431884765625,776.188110351562,0,1,faces,female,0,1,faces,A,female,VS,I,27,E12,109.380859375
0,1,0,24403,0.603515625,0.119140625,2,1,4,17,3,665.121032714844,818.275695800781,0,1,faces,female,0,1,faces,A,female,VS,I,27,E12,109.380859375
2,1,0,24404,0.767578125,0.267578125,3,1,3,16,4,667.984375,729.722473144531,0,1,faces,female,0,1,faces,A,female,VS,I,27,E12,109.380859375
0,1,0,24405,1.1328125,0.169921875,4,1,5,19,5,716.774230957031,142.051788330078,0,1,objects,small,0,1,faces,A,female,VS,I,27,E12,109.380859375
0,1,0,24407,1.548828125,0.134765625,5,0,7,38,7,998.445190429688,250.02018737793,0,1,objects,small,0,1,faces,A,female,VS,I,27,E12,109.380859375
0,1,0,24408,1.732421875,0.177734375,6,0,9,48,8,1069.63989257812,360.505035400391,0,1,faces,female,0,1,faces,A,female,VS,I,27,E12,109.380859375
0,1,0,24409,1.962890625,0.115234375,7,0,11,58,9,1168.06213378906,444.408172607422,0,1,faces,female,0,1,faces,A,female,VS,I,27,E12,109.380859375
0,1,0,24410,2.150390625,0.185546875,8,0,10,55,10,1159.82568359375,153.064819335938,0,1,faces,male,0,1,faces,A,female,VS,I,27,E12,109.380859375
0,1,0,24412,2.595703125,0.1640625,9,0,14,69,12,1273.01245117188,640.460876464844,0,1,faces,female,0,1,faces,A,female,VS,I,27,E12,109.380859375
0,1,0,24413,2.82421875,0.1171875,10,0,12,62,13,1180.70239257812,826.202819824219,0,1,faces,male,0,1,faces,A,female,VS,I,27,E12,109.380859375
0,1,0,24414,2.98046875,0.205078125,11,0,13,63,14,1157.81665039062,899.0625,0,1,faces,male,0,1,faces,A,female,VS,I,27,E12,109.380859375
0,1,0,24415,3.25390625,0.224609375,12,0,15,80,15,1368.50817871094,821.069641113281,0,1,faces,male,0,1,faces,A,female,VS,I,27,E12,109.380859375
0,1,0,24417,3.6953125,0.16015625,13,0,8,42,17,966.095275878906,618.535888671875,0,1,objects,big,0,1,faces,A,female,VS,I,27,E12,109.380859375
3,1,0,24418,3.9296875,0.171875,14,0,3,16,18,652.496887207031,766.227172851562,0,1,faces,female,0,1,faces,A,female,VS,I,27,E12,109.380859375
0,1,0,24433,0.2578125,0.109375,1,1,7,21,1,750.201171875,378.029998779297,0,1,faces,female,0,0,faces,A,female,EX,I,28,E12,113.580078125
1,1,0,24434,0.43359375,0.171875,2,1,10,40,2,973.926940917969,430.335662841797,0,1,faces,female,0,0,faces,A,female,EX,I,28,E12,113.580078125
1,1,1,24435,0.681640625,0.1953125,3,1,5,19,3,757.107788085938,150.953048706055,0,1,faces,female,0,0,faces,A,female,EX,I,28,E12,113.580078125
2,1,1,24438,1.27734375,0.103515625,4,1,10,40,6,945.530456542969,471.040069580078,0,1,faces,female,0,0,faces,A,female,EX,I,28,E12,113.580078125
0,1,0,24441,1.78515625,0.2109375,5,0,15,77,9,1347.14587402344,549.465393066406,0,1,faces,female,0,0,faces,A,female,EX,I,28,E12,113.580078125
0,1,0,24442,2.0625,0.1875,6,0,13,70,10,1260.74475097656,763.184020996094,0,1,objects,small,0,0,faces,A,female,EX,I,28,E12,113.580078125
0,1,0,24443,2.291015625,0.201171875,7,0,14,71,11,1258.66418457031,821.356628417969,0,1,objects,big,0,0,faces,A,female,EX,I,28,E12,113.580078125
0,1,0,24445,2.78125,0.18359375,8,0,1,9,13,525.531127929688,931.051635742188,0,1,faces,male,0,0,faces,A,female,EX,I,28,E12,113.580078125
0,1,1,24446,3.02734375,0.185546875,9,0,4,15,14,645.278686523438,619.175842285156,0,1,faces,female,0,0,faces,A,female,EX,I,28,E12,113.580078125
0,1,1,24448,3.462890625,0.19140625,10,0,2,10,16,669.680297851562,165.115127563477,0,1,faces,male,0,0,faces,A,female,EX,I,28,E12,113.580078125
2,1,0,24450,3.939453125,0.330078125,11,0,5,19,18,733.898498535156,109.42081451416,0,1,faces,female,0,0,faces,A,female,EX,I,28,E12,113.580078125
1,1,0,24467,0.248046875,0.197265625,1,1,4,32,1,879.771118164062,523.881469726562,0,1,objects,small,0,0,faces,P,male,VS,I,29,E12,117.779296875
0,1,1,24468,0.50390625,0.12109375,2,1,8,48,2,1022.30401611328,341.628143310547,0,1,faces,female,0,0,faces,P,male,VS,I,29,E12,117.779296875
0,1,0,24471,1.04296875,0.154296875,3,1,6,37,5,961.999328613281,113.549346923828,0,1,faces,female,0,0,faces,P,male,VS,I,29,E12,117.779296875
0,1,1,24472,1.275390625,0.154296875,4,1,10,65,6,1303.64904785156,264.730834960938,0,1,faces,female,0,0,faces,P,male,VS,I,29,E12,117.779296875
0,1,0,24474,1.642578125,0.154296875,5,0,11,68,8,1268.77795410156,544.667114257812,0,1,objects,big,0,0,faces,P,male,VS,I,29,E12,117.779296875
0,1,0,24475,1.859375,0.1171875,6,0,12,70,9,1259.66857910156,726.318969726562,0,1,objects,big,0,0,faces,P,male,VS,I,29,E12,117.779296875
2,1,0,24477,2.2265625,0.18359375,7,0,4,32,11,909.710693359375,568.165832519531,0,1,objects,small,0,0,faces,P,male,VS,I,29,E12,117.779296875
0,1,1,24479,2.61328125,0.138671875,8,0,3,22,13,763.193908691406,438.305480957031,0,1,objects,small,0,0,faces,P,male,VS,I,29,E12,117.779296875
0,1,0,24482,3.0546875,0.228515625,9,0,1,11,16,649.013610839844,205.901336669922,0,1,faces,male,0,0,faces,P,male,VS,I,29,E12,117.779296875
0,1,0,24483,3.369140625,0.203125,10,0,2,16,17,650.832092285156,733.485778808594,0,1,faces,male,0,0,faces,P,male,VS,I,29,E12,117.779296875
0,1,1,24485,3.767578125,0.19140625,11,0,7,42,19,965.637329101562,627.6708984375,0,1,faces,female,0,0,faces,P,male,VS,I,29,E12,117.779296875
1,1,0,24507,0.2578125,0.134765625,1,1,8,40,1,975.793701171875,449.676544189453,0,1,faces,female,0,1,faces,A,male,VS,F,30,E12,121.978515625
1,1,0,24508,0.44140625,0.123046875,2,1,7,39,2,960.748474121094,334.131225585938,0,1,faces,female,0,1,faces,A,male,VS,F,30,E12,121.978515625
0,1,0,24509,0.63671875,0.1484375,3,1,4,19,3,754.558288574219,152.518051147461,0,1,faces,female,0,1,faces,A,male,VS,F,30,E12,121.978515625
0,1,0,24510,0.833984375,0.1953125,4,1,2,11,4,665.229614257812,205.386001586914,0,1,faces,male,0,1,faces,A,male,VS,F,30,E12,121.978515625
0,1,1,24511,1.115234375,0.138671875,5,0,3,16,5,630.679321289062,775.789184570312,0,1,objects,big,0,1,faces,A,male,VS,F,30,E12,121.978515625
0,1,0,24513,1.4140625,0.10546875,6,0,6,34,7,875.939392089844,751.91552734375,0,1,objects,small,0,1,faces,A,male,VS,F,30,E12,121.978515625
0,1,0,24514,1.591796875,0.140625,7,0,10,63,8,1164.15051269531,893.886962890625,0,1,objects,small,0,1,faces,A,male,VS,F,30,E12,121.978515625
0,1,1,24515,1.798828125,0.12890625,8,0,14,78,9,1354.732421875,678.871887207031,0,1,faces,female,0,1,faces,A,male,VS,F,30,E12,121.978515625
0,1,0,24517,2.19140625,0.203125,9,0,15,79,11,1364.61083984375,699.620178222656,0,1,faces,male,0,1,faces,A,male,VS,F,30,E12,121.978515625
0,1,1,24520,2.775390625,0.17578125,10,0,12,66,14,1256.44580078125,313.306396484375,0,1,faces,male,0,1,faces,A,male,VS,F,30,E12,121.978515625
0,1,0,24522,3.134765625,0.115234375,11,0,9,59,16,1192.42541503906,532.418884277344,0,1,faces,male,0,1,faces,A,male,VS,F,30,E12,121.978515625
2,1,0,24523,3.32421875,0.13671875,12,0,7,39,17,951.882690429688,358.540344238281,0,1,faces,female,0,1,faces,A,male,VS,F,30,E12,121.978515625
2,1,0,24524,3.498046875,0.1328125,13,0,8,40,18,955.437255859375,407.814544677734,0,1,faces,female,0,1,faces,A,male,VS,F,30,E12,121.978515625
3,1,1,24525,3.671875,0.12890625,14,0,7,39,19,951.588073730469,350.335052490234,0,1,faces,female,0,1,faces,A,male,VS,F,30,E12,121.978515625
0,1,0,24541,0.2421875,0.1328125,1,1,11,49,2,1093.06970214844,409.826507568359,0,1,faces,male,0,1,faces,A,male,VS,I,31,E12,126.177734375
1,1,0,24542,0.421875,0.16015625,2,1,13,57,3,1170.44775390625,346.958526611328,0,1,faces,male,0,1,faces,A,male,VS,I,31,E12,126.177734375
0,1,0,24544,0.7890625,0.283203125,3,1,14,58,5,1165.64367675781,415.641448974609,0,1,faces,female,0,1,faces,A,male,VS,I,31,E12,126.177734375
0,1,0,24546,1.298828125,0.15625,4,1,10,46,7,1039.30725097656,113.786026000977,0,1,faces,male,0,1,faces,A,male,VS,I,31,E12,126.177734375
2,1,0,24547,1.525390625,0.19921875,5,0,13,57,8,1157.25866699219,295.888763427734,0,1,faces,male,0,1,faces,A,male,VS,I,31,E12,126.177734375
0,1,0,24548,1.853515625,0.20703125,6,0,5,20,9,750.115478515625,242.766418457031,0,1,objects,big,0,1,faces,A,male,VS,I,31,E12,126.177734375
1,1,0,24549,2.162109375,0.1875,7,0,2,11,10,658.863403320312,226.373977661133,0,1,faces,female,0,1,faces,A,male,VS,I,31,E12,126.177734375
0,1,1,24550,2.400390625,0.173828125,8,0,3,13,11,631.487548828125,414.928192138672,0,1,objects,small,0,1,faces,A,male,VS,I,31,E12,126.177734375
2,1,1,24553,2.8828125,0.375,9,0,2,11,14,651.650451660156,228.105087280273,0,1,faces,female,0,1,faces,A,male,VS,I,31,E12,126.177734375
0,1,0,24554,3.330078125,0.439453125,10,0,1,5,15,559.603515625,538.395690917969,0,1,faces,male,0,1,faces,A,male,VS,I,31,E12,126.177734375
0,1,0,24572,0.41015625,0.12890625,1,1,6,32,2,854.534545898438,501.218811035156,0,1,faces,male,0,1,objects,P,small,VS,O,32,E12,130.376953125
0,1,0,24573,0.599609375,0.26171875,2,1,9,58,3,1176.70300292969,434.428741455078,0,1,objects,big,0,1,objects,P,small,VS,O,32,E12,130.376953125
1,1,0,24574,0.94140625,0.189453125,3,1,2,21,4,778.45458984375,345.048919677734,0,1,faces,female,0,1,objects,P,small,VS,O,32,E12,130.376953125
1,1,0,24575,1.21484375,0.12109375,4,1,13,69,5,1266.39331054688,653.080383300781,0,1,faces,male,0,1,objects,P,small,VS,O,32,E12,130.376953125
2,1,0,24576,1.517578125,0.111328125,5,0,2,21,6,731.280578613281,359.621307373047,0,1,faces,female,0,1,objects,P,small,VS,O,32,E12,130.376953125
2,1,0,24577,2.783203125,0.333984375,6,0,13,69,7,1275.34704589844,634.54248046875,0,1,faces,male,0,1,objects,P,small,VS,O,32,E12,130.376953125
0,1,0,24579,3.306640625,0.357421875,7,0,15,81,9,1347.63037109375,906.446105957031,0,1,faces,female,0,1,objects,P,small,VS,O,32,E12,130.376953125
0,1,0,24580,3.759765625,0.138671875,8,0,11,65,10,1224.33776855469,281.578369140625,0,1,objects,small,0,1,objects,P,small,VS,O,32,E12,130.376953125
0,1,0,24594,0.2421875,0.142578125,1,1,8,32,1,849.971984863281,532.936401367188,0,1,faces,female,0,1,objects,A,big,VS,O,33,E12,134.576171875
0,1,0,24596,0.62109375,0.1875,2,1,2,7,3,564.961059570312,718.608154296875,0,1,objects,big,0,1,objects,A,big,VS,O,33,E12,134.576171875
0,1,0,24597,0.859375,0.212890625,3,1,3,14,4,646.1025390625,578.837280273438,0,1,faces,female,0,1,objects,A,big,VS,O,33,E12,134.576171875
0,1,0,24599,1.259765625,0.171875,4,1,1,1,6,545.528625488281,113.990943908691,0,1,faces,male,0,1,objects,A,big,VS,O,33,E12,134.576171875
0,1,0,24602,1.919921875,0.154296875,5,0,13,74,9,1349.81774902344,225.330825805664,0,1,faces,male,0,1,objects,A,big,VS,O,33,E12,134.576171875
1,1,1,24603,2.16796875,0.1328125,6,0,14,80,10,1388.9658203125,875.38330078125,0,1,objects,big,0,1,objects,A,big,VS,O,33,E12,134.576171875
2,1,0,24606,2.67578125,0.318359375,7,0,14,80,13,1362.63903808594,809.409423828125,0,1,objects,big,0,1,objects,A,big,VS,O,33,E12,134.576171875
0,1,0,24607,3.037109375,0.3828125,8,0,15,81,14,1340.44006347656,896.142639160156,0,1,objects,big,0,1,objects,A,big,VS,O,33,E12,134.576171875
0,1,1,24609,3.705078125,0.154296875,9,0,9,36,16,824.933410644531,909.001586914062,0,1,objects,small,0,1,objects,A,big,VS,O,33,E12,134.576171875
0,1,0,24625,0.384765625,0.109375,1,1,7,23,3,782.389770507812,514.814025878906,0,1,faces,male,0,1,faces,A,female,VS,F,34,E12,138.775390625
0,1,0,24627,0.685546875,0.15625,2,1,9,40,5,945.054382324219,425.906097412109,0,1,faces,female,0,1,faces,A,female,VS,F,34,E12,138.775390625
0,1,1,24628,0.916015625,0.134765625,3,1,10,55,6,1174.09252929688,185.092971801758,0,1,faces,female,0,1,faces,A,female,VS,F,34,E12,138.775390625
0,1,0,24630,1.359375,0.158203125,4,1,14,70,8,1227.31420898438,694.943908691406,0,1,faces,female,0,1,faces,A,female,VS,F,34,E12,138.775390625
0,1,1,24631,1.564453125,0.111328125,5,0,12,60,9,1194.17456054688,643.350952148438,0,1,faces,female,0,1,faces,A,female,VS,F,34,E12,138.775390625
0,1,0,24633,1.890625,0.16796875,6,0,8,26,11,734.270202636719,831.383544921875,0,1,objects,small,0,1,faces,A,female,VS,F,34,E12,138.775390625
0,1,0,24635,2.279296875,0.140625,7,0,4,7,13,548.236694335938,729.005249023438,0,1,objects,big,0,1,faces,A,female,VS,F,34,E12,138.775390625
0,1,1,24637,2.62890625,0.17578125,8,0,1,3,15,540.813659667969,333.788879394531,0,1,faces,male,0,1,faces,A,female,VS,F,34,E12,138.775390625
0,1,0,24639,2.921875,0.166015625,9,0,2,4,17,543.20654296875,418.749267578125,0,1,faces,female,0,1,faces,A,female,VS,F,34,E12,138.775390625
0,1,1,24641,3.298828125,0.169921875,10,0,13,63,19,1144.54931640625,898.032165527344,0,1,faces,male,0,1,faces,A,female,VS,F,34,E12,138.775390625
0,1,1,24642,3.548828125,0.1171875,11,0,5,17,20,672.614624023438,814.400939941406,0,1,faces,male,0,1,faces,A,female,VS,F,34,E12,138.775390625
1,1,0,24660,0.380859375,0.130859375,1,1,7,25,2,731.319091796875,747.826171875,0,1,faces,male,0,1,objects,A,small,VS,O,35,E12,142.974609375
0,1,1,24662,0.701171875,0.115234375,2,1,11,63,4,1134.75830078125,900.268798828125,0,1,faces,male,0,1,objects,A,small,VS,O,35,E12,142.974609375
0,1,0,24665,1.208984375,0.119140625,3,1,12,65,7,1268.83227539062,224.480194091797,0,1,faces,female,0,1,objects,A,small,VS,O,35,E12,142.974609375
0,1,0,24666,1.408203125,0.150390625,4,1,10,38,8,957.094177246094,221.22216796875,0,1,objects,small,0,1,objects,A,small,VS,O,35,E12,142.974609375
0,1,0,24667,1.638671875,0.140625,5,0,1,1,9,538.47509765625,166.872406005859,0,1,objects,big,0,1,objects,A,small,VS,O,35,E12,142.974609375
0,1,0,24668,1.814453125,0.189453125,6,0,2,2,10,545.944580078125,213.645538330078,0,1,faces,female,0,1,objects,A,small,VS,O,35,E12,142.974609375
2,1,1,24669,2.087890625,0.12890625,7,0,7,25,11,721.374206542969,733.120422363281,0,1,faces,male,0,1,objects,A,small,VS,O,35,E12,142.974609375
0,1,0,24671,2.404296875,0.189453125,8,0,8,26,13,758.6513671875,807.373718261719,0,1,objects,big,0,1,objects,A,small,VS,O,35,E12,142.974609375
0,1,1,24673,2.8828125,0.189453125,9,0,4,11,15,625.433959960938,197.493316650391,0,1,objects,small,0,1,objects,A,small,VS,O,35,E12,142.974609375
0,1,0,24677,3.849609375,0.240234375,10,0,15,74,19,1329.19995117188,225.370712280273,0,1,faces,female,0,1,objects,A,small,VS,O,35,E12,142.974609375
0,1,1,24690,0.396484375,0.181640625,1,1,12,59,3,1206.93359375,551.147583007812,0,1,faces,female,1,0,objects,P,small,VS,O,36,E12,147.173828125
0,1,0,24692,0.783203125,0.240234375,2,1,15,77,5,1365.05004882812,525.504028320312,0,1,faces,female,1,0,objects,P,small,VS,O,36,E12,147.173828125
0,1,1,24693,1.099609375,0.109375,3,1,13,60,6,1147.1005859375,667.071960449219,0,1,objects,big,1,0,objects,P,small,VS,O,36,E12,147.173828125
0,1,0,24695,1.43359375,0.16796875,4,1,7,32,8,896.974487304688,498.901947021484,0,1,faces,male,1,0,objects,P,small,VS,O,36,E12,147.173828125
0,1,0,24696,1.68359375,0.203125,5,0,2,10,9,638.186462402344,183.482757568359,0,1,faces,male,1,0,objects,P,small,VS,O,36,E12,147.173828125
0,0,1,24699,2.384765625,0.3125,6,0,3,11,12,647.32177734375,221.709548950195,1,0,NaN,NaN,1,0,objects,P,small,VS,O,36,E12,147.173828125
0,0,0,24701,2.958984375,0.109375,7,0,6,25,14,747.954162597656,741.747924804688,0,1,faces,female,1,0,objects,P,small,VS,O,36,E12,147.173828125
0,0,0,24702,3.1171875,0.126953125,8,0,4,15,15,666.913452148438,616.914428710938,0,1,faces,male,1,0,objects,P,small,VS,O,36,E12,147.173828125
0,0,0,24704,3.5234375,0.14453125,9,0,14,73,17,1354.15515136719,126.287132263184,0,1,objects,big,1,0,objects,P,small,VS,O,36,E12,147.173828125
0,0,0,24705,3.744140625,0.189453125,10,0,11,47,18,1048.314453125,219.051773071289,0,1,faces,male,1,0,objects,P,small,VS,O,36,E12,147.173828125
0,1,0,24723,0.45703125,0.283203125,1,1,3,19,2,768.354431152344,170.486129760742,0,1,faces,female,0,1,objects,A,small,EX,O,37,E12,151.373046875
1,1,0,24726,1.77734375,0.216796875,2,1,14,74,5,1360.86828613281,211.786239624023,0,1,faces,female,0,1,objects,A,small,EX,O,37,E12,151.373046875
0,1,1,24727,2.072265625,0.15625,3,1,7,37,6,938.2275390625,172.785949707031,0,1,faces,male,0,1,objects,A,small,EX,O,37,E12,151.373046875
2,1,1,24729,2.51171875,0.171875,4,1,14,74,8,1358.59216308594,230.722610473633,0,1,faces,female,0,1,objects,A,small,EX,O,37,E12,151.373046875
0,1,0,24732,3.533203125,0.228515625,5,0,12,67,11,1250.17980957031,439.113037109375,0,1,faces,female,0,1,objects,A,small,EX,O,37,E12,151.373046875
1,1,1,24750,0.23046875,0.115234375,1,1,7,33,1,852.884399414062,674.149658203125,0,1,faces,female,0,1,faces,A,female,EX,F,38,E12,155.572265625
0,1,1,24752,0.6015625,0.11328125,2,1,1,1,3,598.125244140625,167.379776000977,0,1,faces,female,0,1,faces,A,female,EX,F,38,E12,155.572265625
0,1,0,24754,0.876953125,0.369140625,3,1,2,2,5,544.258239746094,196.027755737305,0,1,faces,female,0,1,faces,A,female,EX,F,38,E12,155.572265625
0,1,1,24755,1.330078125,0.119140625,4,1,11,48,6,1065.21533203125,342.155548095703,0,1,objects,small,0,1,faces,A,female,EX,F,38,E12,155.572265625
2,1,0,24757,2.056640625,0.15234375,5,0,7,33,8,819.794982910156,613.156127929688,0,1,faces,female,0,1,faces,A,female,EX,F,38,E12,155.572265625
0,1,0,24758,2.248046875,0.1484375,6,0,5,24,9,764.15771484375,628.770385742188,0,1,faces,male,0,1,faces,A,female,EX,F,38,E12,155.572265625
0,1,1,24759,2.466796875,0.158203125,7,0,3,7,10,538.277893066406,733.438232421875,0,1,objects,big,0,1,faces,A,female,EX,F,38,E12,155.572265625
0,1,0,24761,3.1484375,0.3046875,8,0,4,9,12,544.607482910156,915.024353027344,0,1,faces,male,0,1,faces,A,female,EX,F,38,E12,155.572265625
0,1,1,24762,3.529296875,0.13671875,9,0,10,44,13,954.800476074219,806.253784179688,0,1,faces,male,0,1,faces,A,female,EX,F,38,E12,155.572265625
1,1,1,24780,0.275390625,0.173828125,1,1,6,33,2,846.048828125,599.758666992188,1,0,NaN,NaN,1,1,faces,P,female,VS,I,39,E12,159.771484375
0,1,0,24782,0.703125,0.14453125,2,1,5,28,4,857.823974609375,158.98974609375,0,1,objects,big,1,1,faces,P,female,VS,I,39,E12,159.771484375
0,1,0,24783,0.94140625,0.197265625,3,1,1,19,5,730.576782226562,114.305801391602,0,1,faces,female,1,1,faces,P,female,VS,I,39,E12,159.771484375
0,1,0,24784,1.216796875,0.193359375,4,1,8,47,6,1055.89306640625,226.781311035156,0,1,faces,female,1,1,faces,P,female,VS,I,39,E12,159.771484375
0,1,0,24785,1.4765625,0.197265625,5,0,9,58,7,1163.15844726562,417.439575195312,0,1,faces,male,1,1,faces,P,female,VS,I,39,E12,159.771484375
0,1,0,24788,2.037109375,0.134765625,6,0,11,62,10,1183.21118164062,842.55908203125,0,1,objects,big,1,1,faces,P,female,VS,I,39,E12,159.771484375
0,1,1,24789,2.3046875,0.18359375,7,0,13,70,11,1276.34729003906,725.046264648438,0,1,faces,female,1,1,faces,P,female,VS,I,39,E12,159.771484375
2,1,1,24792,2.888671875,0.154296875,8,0,6,33,14,850.195617675781,628.424743652344,1,0,NaN,NaN,1,1,faces,P,female,VS,I,39,E12,159.771484375
0,0,0,24794,3.326171875,0.435546875,9,0,3,25,16,769.14599609375,723.660827636719,0,1,faces,female,1,1,faces,P,female,VS,I,39,E12,159.771484375
0,1,0,24813,0.30078125,0.15234375,1,1,8,40,2,927.03076171875,431.547485351562,0,1,objects,big,0,0,objects,A,big,EX,O,40,E12,163.970703125
0,1,0,24814,0.53125,0.115234375,2,1,1,2,3,555.790466308594,231.603515625,0,1,objects,small,0,0,objects,A,big,EX,O,40,E12,163.970703125
0,1,1,24815,0.6875,0.15234375,3,1,2,3,4,539.79052734375,292.599670410156,0,1,faces,female,0,0,objects,A,big,EX,O,40,E12,163.970703125
0,1,1,24817,1,0.171875,4,1,3,19,6,731.720092773438,122.550224304199,0,1,faces,male,0,0,objects,A,big,EX,O,40,E12,163.970703125
0,1,1,24819,1.357421875,0.107421875,5,0,12,55,8,1123.56359863281,127.749015808105,0,1,faces,female,0,0,objects,A,big,EX,O,40,E12,163.970703125
0,1,0,24822,1.931640625,0.197265625,6,0,15,77,11,1360.62451171875,540.445068359375,0,1,faces,female,0,0,objects,A,big,EX,O,40,E12,163.970703125
0,1,0,24823,2.177734375,0.291015625,7,0,14,69,12,1266.22680664062,618.971435546875,0,1,faces,female,0,0,objects,A,big,EX,O,40,E12,163.970703125
0,1,1,24825,2.689453125,0.14453125,8,0,4,25,14,754.996398925781,751.126342773438,0,1,faces,male,0,0,objects,A,big,EX,O,40,E12,163.970703125
0,1,0,24827,3.0390625,0.28125,9,0,9,44,16,958.635437011719,814.822998046875,0,1,faces,male,0,0,objects,A,big,EX,O,40,E12,163.970703125
0,1,1,24828,3.365234375,0.173828125,10,0,10,45,17,974.25634765625,908.367553710938,0,1,objects,small,0,0,objects,A,big,EX,O,40,E12,163.970703125
0,1,0,24830,3.76171875,0.234375,11,0,11,54,19,1060.50756835938,913.233154296875,0,1,objects,big,0,0,objects,A,big,EX,O,40,E12,163.970703125
0,1,1,24847,0.03125,0.205078125,1,1,6,22,1,755.968078613281,471.775024414062,0,1,faces,male,1,0,faces,P,female,VS,F,41,E12,168.169921875
1,1,0,24849,0.4375,0.16796875,2,1,13,60,3,1149.07653808594,610.243713378906,1,0,NaN,NaN,1,0,faces,P,female,VS,F,41,E12,168.169921875
1,1,0,24850,0.646484375,0.1328125,3,1,12,59,4,1161.97180175781,565.327575683594,0,1,faces,male,1,0,faces,P,female,VS,F,41,E12,168.169921875
2,0,1,24851,0.818359375,0.28125,4,1,13,60,5,1166.71276855469,627.734985351562,1,0,NaN,NaN,1,0,faces,P,female,VS,F,41,E12,168.169921875
0,0,1,24853,1.626953125,0.130859375,5,0,4,17,7,635.878356933594,802.938903808594,0,1,faces,female,1,0,faces,P,female,VS,F,41,E12,168.169921875
0,0,0,24855,1.939453125,0.154296875,6,0,8,34,9,882.386596679688,741.72509765625,0,1,faces,female,1,0,faces,P,female,VS,F,41,E12,168.169921875
0,0,0,24856,2.154296875,0.140625,7,0,9,36,10,866.047485351562,925.447937011719,0,1,faces,female,1,0,faces,P,female,VS,F,41,E12,168.169921875
0,0,0,24858,2.548828125,0.12890625,8,0,5,19,12,739.574096679688,126.24609375,0,1,objects,small,1,0,faces,P,female,VS,F,41,E12,168.169921875
0,0,0,24860,2.8984375,0.13671875,9,0,11,53,14,1069.90954589844,820.685424804688,0,1,faces,male,1,0,faces,P,female,VS,F,41,E12,168.169921875
0,0,1,24862,3.2421875,0.138671875,10,0,15,74,16,1352.73950195312,234.895797729492,0,1,faces,female,1,0,faces,P,female,VS,F,41,E12,168.169921875
0,0,0,24863,3.45703125,0.119140625,11,0,10,49,17,1099.3115234375,478.493530273438,0,1,objects,small,1,0,faces,P,female,VS,F,41,E12,168.169921875
2,0,0,24864,3.626953125,0.10546875,12,0,12,59,18,1166.56311035156,545.800842285156,0,1,faces,male,1,0,faces,P,female,VS,F,41,E12,168.169921875
3,0,0,24865,3.771484375,0.267578125,13,0,13,60,19,1178.39404296875,617.347412109375,1,0,NaN,NaN,1,0,faces,P,female,VS,F,41,E12,168.169921875
0,1,0,24878,0.25390625,0.103515625,1,1,8,41,1,980.404907226562,539.003356933594,0,1,faces,male,1,1,faces,P,female,VS,I,42,E12,172.369140625
0,1,0,24879,0.4140625,0.251953125,2,1,11,57,2,1167.67639160156,327.528778076172,0,1,faces,male,1,1,faces,P,female,VS,I,42,E12,172.369140625
0,1,1,24880,0.720703125,0.123046875,3,1,12,73,3,1359.65808105469,181.695755004883,0,1,faces,male,1,1,faces,P,female,VS,I,42,E12,172.369140625
0,1,0,24882,1.056640625,0.138671875,4,1,13,74,5,1352.99719238281,229.786834716797,0,1,faces,female,1,1,faces,P,female,VS,I,42,E12,172.369140625
0,1,1,24883,1.28125,0.1640625,5,0,14,79,6,1362.40625,740.794799804688,0,1,faces,male,1,1,faces,P,female,VS,I,42,E12,172.369140625
0,1,0,24885,1.685546875,0.18359375,6,0,7,35,8,861.198608398438,824.056457519531,0,1,faces,female,1,1,faces,P,female,VS,I,42,E12,172.369140625
0,1,1,24886,1.908203125,0.185546875,7,0,9,44,9,936.177551269531,823.331909179688,0,1,faces,female,1,1,faces,P,female,VS,I,42,E12,172.369140625
0,1,0,24890,2.607421875,0.185546875,8,0,1,1,13,527.343811035156,109.819625854492,0,1,objects,big,1,1,faces,P,female,VS,I,42,E12,172.369140625
1,0,0,24891,2.87109375,0.2421875,9,0,5,22,14,769.109741210938,429.168609619141,1,0,NaN,NaN,1,1,faces,P,female,VS,I,42,E12,172.369140625
0,0,0,24892,3.16015625,0.154296875,10,0,4,14,15,658.748840332031,515.615661621094,0,1,faces,female,1,1,faces,P,female,VS,I,42,E12,172.369140625
2,0,0,24893,3.361328125,0.205078125,11,0,5,22,16,762.518127441406,420.478973388672,1,0,NaN,NaN,1,1,faces,P,female,VS,I,42,E12,172.369140625
0,1,0,24907,0.244140625,0.193359375,1,1,4,22,1,765.435546875,442.395202636719,0,1,faces,male,1,1,faces,P,female,VS,F,43,E12,176.568359375
0,1,0,24908,0.505859375,0.18359375,2,1,6,33,2,832.50390625,657.89794921875,0,1,faces,female,1,1,faces,P,female,VS,F,43,E12,176.568359375
0,1,0,24909,0.76171875,0.205078125,3,1,10,60,3,1158.80688476562,655.806335449219,0,1,faces,male,1,1,faces,P,female,VS,F,43,E12,176.568359375
0,1,0,24910,1.046875,0.166015625,4,1,5,27,4,739.528137207031,920.530151367188,0,1,faces,male,1,1,faces,P,female,VS,F,43,E12,176.568359375
0,1,1,24913,1.697265625,0.15625,5,0,9,56,7,1113.65075683594,223.690460205078,0,1,faces,female,1,1,faces,P,female,VS,F,43,E12,176.568359375
0,1,0,24915,1.994140625,0.259765625,6,0,8,47,9,1053.16320800781,228.592086791992,0,1,faces,male,1,1,faces,P,female,VS,F,43,E12,176.568359375
0,1,0,24916,2.30078125,0.115234375,7,0,7,38,10,957.2373046875,236.585952758789,0,1,objects,small,1,1,faces,P,female,VS,F,43,E12,176.568359375
0,1,1,24917,2.4921875,0.1015625,8,0,15,74,11,1321.28881835938,231.038803100586,0,1,faces,female,1,1,faces,P,female,VS,F,43,E12,176.568359375
0,1,0,24920,2.984375,0.21875,9,0,1,12,14,639.288391113281,334.858489990234,0,1,faces,female,1,1,faces,P,female,VS,F,43,E12,176.568359375
0,1,1,24921,3.25,0.1171875,10,0,2,13,15,640.692993164062,474.075561523438,1,0,NaN,NaN,1,1,faces,P,female,VS,F,43,E12,176.568359375
0,1,0,24938,0.876953125,0.287109375,1,1,3,9,5,532.108825683594,913.66552734375,0,1,objects,big,0,1,objects,P,big,VS,O,44,E12,180.767578125
0,1,0,24939,1.248046875,0.3046875,2,1,4,22,6,761.725708007812,420.066375732422,0,1,objects,small,0,1,objects,P,big,VS,O,44,E12,180.767578125
0,1,1,24940,1.640625,0.126953125,3,1,10,63,7,1161.65783691406,944.427673339844,0,1,faces,male,0,1,objects,P,big,VS,O,44,E12,180.767578125
0,1,0,24943,2.1484375,0.1328125,4,1,11,69,10,1259.15148925781,640.803344726562,0,1,faces,female,0,1,objects,P,big,VS,O,44,E12,180.767578125
0,1,0,24945,2.490234375,0.1953125,5,0,13,74,12,1333.6474609375,283.082885742188,0,1,faces,female,0,1,objects,P,big,VS,O,44,E12,180.767578125
1,1,0,24962,0.423828125,0.26953125,1,1,7,51,3,1046.5986328125,637.857116699219,0,1,faces,male,0,1,faces,A,male,EX,F,45,E12,184.966796875
1,1,0,24963,0.767578125,0.158203125,2,1,2,23,4,772.174743652344,577.999877929688,0,1,faces,male,0,1,faces,A,male,EX,F,45,E12,184.966796875
0,1,0,24964,0.9609375,0.236328125,3,1,3,24,5,776.220947265625,621.615600585938,0,1,faces,female,0,1,faces,A,male,EX,F,45,E12,184.966796875
0,1,0,24965,1.275390625,0.1328125,4,1,5,36,6,910.094055175781,914.740844726562,0,1,faces,female,0,1,faces,A,male,EX,F,45,E12,184.966796875
0,1,0,24966,1.447265625,0.185546875,5,0,6,45,7,961.005126953125,915.348327636719,0,1,faces,male,0,1,faces,A,male,EX,F,45,E12,184.966796875
0,1,1,24967,1.689453125,0.150390625,6,0,13,71,8,1249.97106933594,837.995849609375,0,1,faces,male,0,1,faces,A,male,EX,F,45,E12,184.966796875
0,1,0,24970,2.240234375,0.216796875,7,0,9,55,11,1154.99877929688,142.749526977539,0,1,objects,big,0,1,faces,A,male,EX,F,45,E12,184.966796875
0,1,0,24971,2.525390625,0.15234375,8,0,14,73,12,1361.10083007812,125.399887084961,0,1,objects,big,0,1,faces,A,male,EX,F,45,E12,184.966796875
0,1,0,24972,2.748046875,0.1640625,9,0,15,75,13,1346.48889160156,369.900543212891,0,1,faces,female,0,1,faces,A,male,EX,F,45,E12,184.966796875
2,1,0,24973,2.98828125,0.29296875,10,0,7,51,14,1072.85668945312,624.148864746094,0,1,faces,male,0,1,faces,A,male,EX,F,45,E12,184.966796875
2,1,0,24974,3.35546875,0.15625,11,0,2,23,15,737.301391601562,568.794555664062,0,1,faces,male,0,1,faces,A,male,EX,F,45,E12,184.966796875
0,1,0,24975,3.578125,0.296875,12,0,1,6,16,551.11865234375,624.991455078125,0,1,faces,male,0,1,faces,A,male,EX,F,45,E12,184.966796875
0,1,0,24991,0.27734375,0.134765625,1,1,11,49,2,1022.02386474609,443.719299316406,0,1,faces,female,1,1,objects,P,big,VS,O,46,E12,189.166015625
0,1,0,24992,0.484375,0.126953125,2,1,9,37,3,936.373352050781,150.474319458008,1,0,NaN,NaN,1,1,objects,P,big,VS,O,46,E12,189.166015625
0,1,1,24993,1.94140625,0.15625,3,1,8,35,4,844.387329101562,813.943115234375,0,1,faces,male,1,1,objects,P,big,VS,O,46,E12,189.166015625
0,1,1,24995,2.4140625,0.2578125,4,1,10,45,6,941.149169921875,896.275512695312,0,1,objects,small,1,1,objects,P,big,VS,O,46,E12,189.166015625
0,1,0,24998,3.46484375,0.150390625,5,0,15,81,9,1337.04211425781,907.85986328125,0,1,objects,small,1,1,objects,P,big,VS,O,46,E12,189.166015625
0,1,0,25014,0.40625,0.267578125,1,1,3,12,2,653.051696777344,312.579650878906,0,1,objects,small,0,1,faces,A,male,EX,I,47,E12,193.365234375
0,1,1,25015,0.75,0.15234375,2,1,8,47,3,1070.28503417969,194.364227294922,0,1,objects,big,0,1,faces,A,male,EX,I,47,E12,193.365234375
1,1,0,25018,1.40234375,0.28125,3,1,10,54,6,1058.015625,904.795715332031,0,1,faces,male,0,1,faces,A,male,EX,I,47,E12,193.365234375
0,1,1,25019,1.740234375,0.107421875,4,1,6,36,7,907.158813476562,893.517944335938,0,1,faces,male,0,1,faces,A,male,EX,I,47,E12,193.365234375
2,1,1,25021,2.0859375,0.1875,5,0,10,54,9,1055.29858398438,910.340637207031,0,1,faces,male,0,1,faces,A,male,EX,I,47,E12,193.365234375
0,1,1,25023,2.958984375,0.158203125,6,0,9,52,11,1060.31298828125,732.806579589844,0,1,faces,female,0,1,faces,A,male,EX,I,47,E12,193.365234375
0,1,0,25043,0.8203125,0.18359375,1,1,4,24,5,741.629821777344,634.723388671875,0,1,faces,male,1,1,faces,P,male,VS,I,48,E12,197.564453125
0,1,0,25044,1.0546875,0.142578125,2,1,2,14,6,648.480895996094,573.21630859375,0,1,faces,female,1,1,faces,P,male,VS,I,48,E12,197.564453125
0,1,0,25046,1.40625,0.1328125,3,1,6,36,8,838.085998535156,916.590270996094,0,1,objects,big,1,1,faces,P,male,VS,I,48,E12,197.564453125
0,1,0,25047,1.619140625,0.146484375,4,1,15,80,9,1328.30981445312,825.320129394531,0,1,faces,male,1,1,faces,P,male,VS,I,48,E12,197.564453125
0,1,0,25048,1.80859375,0.15234375,5,0,13,71,10,1251.14013671875,816.149475097656,0,1,faces,male,1,1,faces,P,male,VS,I,48,E12,197.564453125
0,1,0,25051,2.37890625,0.208984375,6,0,11,59,13,1155.13598632812,524.250671386719,0,1,faces,female,1,1,faces,P,male,VS,I,48,E12,197.564453125
0,0,0,25052,2.654296875,1.65234375,7,0,14,77,14,1351.09106445312,524.670166015625,1,0,NaN,NaN,1,1,faces,P,male,VS,I,48,E12,197.564453125
0,1,1,25064,0.7265625,0.240234375,1,1,3,13,1,644.518005371094,458.722381591797,0,1,faces,male,1,1,faces,P,male,VS,F,49,E12,201.763671875
0,1,1,25066,1.2109375,0.126953125,2,1,4,17,3,673.106140136719,851.06298828125,0,1,faces,female,1,1,faces,P,male,VS,F,49,E12,201.763671875
0,1,0,25070,1.880859375,0.23046875,3,1,12,64,7,1231.10412597656,132.267959594727,0,1,faces,male,1,1,faces,P,male,VS,F,49,E12,201.763671875
0,1,0,25072,2.337890625,0.18359375,4,1,14,75,9,1328.06420898438,354.569183349609,0,1,faces,male,1,1,faces,P,male,VS,F,49,E12,201.763671875
0,0,1,25073,2.591796875,0.337890625,5,0,10,59,10,1129.857421875,536.578186035156,1,0,NaN,NaN,1,1,faces,P,male,VS,F,49,E12,201.763671875
0,1,0,25086,0.5625,0.169921875,1,1,4,18,3,616.7724609375,909.275573730469,0,1,faces,female,1,1,objects,P,small,VS,O,50,E12,205.962890625
0,1,1,25087,0.822265625,0.1171875,2,1,14,70,4,1267.67443847656,770.330017089844,0,1,objects,big,1,1,objects,P,small,VS,O,50,E12,205.962890625
0,0,1,25092,1.625,0.21875,3,1,5,19,9,747.6572265625,118.150283813477,1,0,NaN,NaN,1,1,objects,P,small,VS,O,50,E12,205.962890625
1,1,1,25108,0.294921875,0.1484375,1,1,5,40,2,984.095520019531,446.159088134766,0,1,faces,male,0,1,faces,A,female,EX,F,51,E12,210.162109375
0,1,1,25110,0.693359375,0.16796875,2,1,1,11,4,638.333435058594,201.276214599609,0,1,objects,small,0,1,faces,A,female,EX,F,51,E12,210.162109375
1,1,1,25113,1.46875,0.240234375,3,1,4,34,7,845.506958007812,725.286682128906,0,1,faces,female,0,1,faces,A,female,EX,F,51,E12,210.162109375
0,1,0,25115,2.296875,0.150390625,4,1,9,48,9,1016.83911132812,388.408386230469,0,1,faces,female,0,1,faces,A,female,EX,F,51,E12,210.162109375
2,1,0,25116,2.482421875,0.16015625,5,0,5,40,10,972.70654296875,396.930297851562,0,1,faces,male,0,1,faces,A,female,EX,F,51,E12,210.162109375
0,1,1,25118,2.8515625,0.171875,6,0,14,75,12,1336.43212890625,327.484771728516,0,1,faces,male,0,1,faces,A,female,EX,F,51,E12,210.162109375
2,1,1,25122,3.728515625,0.318359375,7,0,4,34,16,859.427429199219,711.251525878906,0,1,faces,female,0,1,faces,A,female,EX,F,51,E12,210.162109375
0,1,0,25135,0.236328125,0.1328125,1,1,4,23,1,793.695251464844,554.794616699219,0,1,faces,male,1,1,faces,P,female,VS,I,52,E12,214.361328125
0,1,1,25136,0.4453125,0.15234375,2,1,3,17,2,618.932983398438,805.88525390625,0,1,faces,female,1,1,faces,P,female,VS,I,52,E12,214.361328125
0,1,1,25138,0.771484375,0.123046875,3,1,7,35,4,821.90869140625,824.019592285156,0,1,faces,female,1,1,faces,P,female,VS,I,52,E12,214.361328125
0,1,0,25140,1.248046875,0.23828125,4,1,12,62,6,1162.54418945312,818.766540527344,0,1,faces,male,1,1,faces,P,female,VS,I,52,E12,214.361328125
1,1,1,25141,1.541015625,0.103515625,5,0,14,78,7,1313.71716308594,653.447814941406,0,1,faces,female,1,1,faces,P,female,VS,I,52,E12,214.361328125
0,1,0,25143,1.830078125,0.146484375,6,0,13,69,9,1265.11254882812,611.982971191406,0,1,faces,male,1,1,faces,P,female,VS,I,52,E12,214.361328125
2,1,0,25144,2.021484375,0.13671875,7,0,14,78,10,1353.05249023438,614.121398925781,0,1,faces,female,1,1,faces,P,female,VS,I,52,E12,214.361328125
0,1,1,25145,2.232421875,0.11328125,8,0,10,57,11,1150.43469238281,367.348968505859,1,0,NaN,NaN,1,1,faces,P,female,VS,I,52,E12,214.361328125
3,0,1,25148,3.48046875,0.10546875,9,0,14,78,14,1343.62683105469,639.851257324219,0,1,faces,female,1,1,faces,P,female,VS,I,52,E12,214.361328125
1,1,0,25165,0.255859375,0.166015625,1,1,7,48,1,1101.50134277344,377.110015869141,0,1,objects,big,0,1,objects,A,small,VS,O,53,E12,218.560546875
1,1,0,25166,0.474609375,0.158203125,2,1,6,47,2,1021.35125732422,282.855895996094,0,1,faces,female,0,1,objects,A,small,VS,O,53,E12,218.560546875
0,1,1,25170,1.603515625,0.169921875,3,1,8,52,6,1051.19934082031,719.259765625,0,1,objects,small,0,1,objects,A,small,VS,O,53,E12,218.560546875
0,1,0,25172,2.05078125,0.181640625,4,1,15,81,8,1324.54357910156,889.807861328125,0,1,faces,female,0,1,objects,A,small,VS,O,53,E12,218.560546875
0,1,0,25173,2.330078125,0.166015625,5,0,12,65,9,1220.62976074219,254.266082763672,0,1,faces,male,0,1,objects,A,small,VS,O,53,E12,218.560546875
0,1,0,25174,2.546875,0.140625,6,0,9,57,10,1162.39782714844,340.106018066406,0,1,faces,male,0,1,objects,A,small,VS,O,53,E12,218.560546875
2,1,0,25175,2.740234375,0.212890625,7,0,6,47,11,1032.55090332031,277.816589355469,0,1,faces,female,0,1,objects,A,small,VS,O,53,E12,218.560546875
2,1,0,25176,2.986328125,0.103515625,8,0,7,48,12,1045.76672363281,298.600646972656,0,1,objects,big,0,1,objects,A,small,VS,O,53,E12,218.560546875
0,1,0,25179,3.4140625,0.12890625,9,0,1,2,15,542.199951171875,208.88996887207,0,1,faces,male,0,1,objects,A,small,VS,O,53,E12,218.560546875
0,1,0,25181,3.76953125,0.21484375,10,0,3,15,17,650.567199707031,636.370361328125,0,1,objects,big,0,1,objects,A,small,VS,O,53,E12,218.560546875
0,1,0,25198,0.267578125,0.115234375,1,1,12,50,2,1020.76080322266,548.804443359375,0,1,faces,female,0,0,faces,P,female,VS,F,54,E12,222.759765625
0,1,1,25201,0.826171875,0.1328125,2,1,4,16,5,657.245239257812,725.878845214844,0,1,faces,male,0,0,faces,P,female,VS,F,54,E12,222.759765625
0,1,0,25202,1.046875,0.11328125,3,1,1,2,6,605.443481445312,251.631942749023,0,1,objects,big,0,0,faces,P,female,VS,F,54,E12,222.759765625
0,1,0,25203,1.208984375,0.140625,4,1,5,20,7,716.565368652344,257.048980712891,0,1,faces,male,0,0,faces,P,female,VS,F,54,E12,222.759765625
0,1,0,25204,1.392578125,0.134765625,5,0,3,12,8,674.059875488281,326.611175537109,0,1,faces,male,0,0,faces,P,female,VS,F,54,E12,222.759765625
0,1,0,25206,1.751953125,0.140625,6,0,10,48,10,1043.41259765625,339.841827392578,0,1,objects,big,0,0,faces,P,female,VS,F,54,E12,222.759765625
0,1,0,25207,1.939453125,0.107421875,7,0,8,39,11,960.17236328125,329.589569091797,0,1,faces,female,0,0,faces,P,female,VS,F,54,E12,222.759765625
0,1,0,25208,2.126953125,0.255859375,8,0,14,70,12,1238.18591308594,740.467590332031,0,1,faces,female,0,0,faces,P,female,VS,F,54,E12,222.759765625
1,1,0,25210,2.59375,0.326171875,9,0,2,9,14,524.474975585938,908.315185546875,0,1,faces,male,0,0,faces,P,female,VS,F,54,E12,222.759765625
0,1,0,25212,3.220703125,0.236328125,10,0,7,37,16,935.734130859375,117.333084106445,0,1,faces,female,0,0,faces,P,female,VS,F,54,E12,222.759765625
2,1,0,25214,3.6875,0.576171875,11,0,2,9,18,535.279846191406,905.710388183594,0,1,faces,male,0,0,faces,P,female,VS,F,54,E12,222.759765625
0,1,0,25229,0.51953125,0.126953125,1,1,6,25,2,761.807922363281,722.133056640625,0,1,objects,big,1,1,objects,P,small,VS,O,55,E12,226.958984375
0,1,1,25231,0.83203125,0.19921875,2,1,2,15,4,655.085327148438,619.819152832031,1,0,NaN,NaN,1,1,objects,P,small,VS,O,55,E12,226.958984375
0,1,0,25233,2.150390625,0.15625,3,1,11,48,6,1080.62719726562,293.490905761719,0,1,faces,female,1,1,objects,P,small,VS,O,55,E12,226.958984375
0,1,1,25234,2.435546875,0.3828125,4,1,13,56,7,1150.03161621094,239.482818603516,0,1,objects,small,1,1,objects,P,small,VS,O,55,E12,226.958984375
0,1,0,25236,3.0234375,0.701171875,5,0,12,55,9,1143.34350585938,152.111236572266,0,1,objects,big,1,1,objects,P,small,VS,O,55,E12,226.958984375
0,1,1,25237,3.779296875,0.13671875,6,0,9,38,10,948.703247070312,208.913208007812,0,1,faces,male,1,1,objects,P,small,VS,O,55,E12,226.958984375
0,1,0,25253,0.412109375,0.2109375,1,1,6,39,3,933.789489746094,295.123291015625,0,1,faces,male,1,1,objects,P,big,VS,O,56,E12,231.158203125
0,1,0,25255,0.80078125,0.126953125,2,1,1,6,5,608.015930175781,686.698181152344,0,1,faces,female,1,1,objects,P,big,VS,O,56,E12,231.158203125
0,1,1,25256,1.05078125,0.158203125,3,1,2,15,6,674.028442382812,602.31396484375,0,1,objects,small,1,1,objects,P,big,VS,O,56,E12,231.158203125
0,1,1,25258,1.392578125,0.140625,4,1,13,71,8,1232.78564453125,811.347595214844,0,1,faces,female,1,1,objects,P,big,VS,O,56,E12,231.158203125
0,1,0,25261,1.9453125,0.1953125,5,0,11,60,11,1160.54724121094,612.447387695312,0,1,objects,big,1,1,objects,P,big,VS,O,56,E12,231.158203125
0,1,0,25262,2.22265625,0.40234375,6,0,7,42,12,971.475952148438,611.390197753906,0,1,objects,small,1,1,objects,P,big,VS,O,56,E12,231.158203125
1,1,1,25264,2.923828125,0.126953125,7,0,14,80,14,1341.01721191406,845.583435058594,1,0,NaN,NaN,1,1,objects,P,big,VS,O,56,E12,231.158203125
2,0,1,25267,3.6875,0.12890625,8,0,14,80,17,1375.47338867188,798.942199707031,1,0,NaN,NaN,1,1,objects,P,big,VS,O,56,E12,231.158203125
1,1,0,25284,0.2890625,0.208984375,1,1,6,30,2,842.237243652344,376.277160644531,0,1,objects,small,0,1,faces,A,female,EX,I,57,E12,235.357421875
2,1,0,25287,1.111328125,0.328125,2,1,6,30,5,821.033203125,336.815246582031,0,1,objects,small,0,1,faces,A,female,EX,I,57,E12,235.357421875
0,1,1,25288,1.5234375,0.1328125,3,1,9,58,6,1176.765625,464.281219482422,0,1,faces,female,0,1,faces,A,female,EX,I,57,E12,235.357421875
3,1,0,25290,2.177734375,0.126953125,4,1,6,30,8,901.795837402344,374.644409179688,0,1,objects,small,0,1,faces,A,female,EX,I,57,E12,235.357421875
0,1,0,25291,2.33984375,0.291015625,5,0,7,31,9,857.538146972656,396.979370117188,0,1,faces,male,0,1,faces,A,female,EX,I,57,E12,235.357421875
0,1,1,25292,2.6875,0.123046875,6,0,3,21,10,728.186279296875,307.504333496094,0,1,faces,female,0,1,faces,A,female,EX,I,57,E12,235.357421875
0,1,1,25294,3.0625,0.125,7,0,2,5,12,565.846740722656,527.750793457031,0,1,faces,female,0,1,faces,A,female,EX,I,57,E12,235.357421875
0,1,0,25296,3.4453125,0.513671875,8,0,4,24,14,743.486022949219,614.83203125,0,1,faces,female,0,1,faces,A,female,EX,I,57,E12,235.357421875
0,1,0,25314,0.443359375,0.166015625,1,1,6,24,3,722.089294433594,601.622436523438,0,1,faces,female,0,1,faces,A,male,VS,F,58,E12,239.556640625
0,1,1,25317,0.931640625,0.16796875,2,1,3,11,6,653.30419921875,265.439056396484,0,1,faces,male,0,1,faces,A,male,VS,F,58,E12,239.556640625
0,1,1,25319,1.2421875,0.142578125,3,1,1,1,8,565.478332519531,109.275955200195,0,1,faces,male,0,1,faces,A,male,VS,F,58,E12,239.556640625
0,1,0,25321,1.5546875,0.158203125,4,1,9,57,10,1166.43005371094,294.263916015625,0,1,objects,big,0,1,faces,A,male,VS,F,58,E12,239.556640625
0,1,0,25322,1.76171875,0.314453125,5,0,12,65,11,1256.009765625,222.412658691406,0,1,faces,male,0,1,faces,A,male,VS,F,58,E12,239.556640625
0,1,0,25323,2.123046875,0.12890625,6,0,14,74,12,1352.95202636719,225.18603515625,0,1,faces,female,0,1,faces,A,male,VS,F,58,E12,239.556640625
0,1,0,25324,2.32421875,0.154296875,7,0,10,58,13,1173.09301757812,440.470916748047,0,1,faces,female,0,1,faces,A,male,VS,F,58,E12,239.556640625
0,1,1,25326,2.68359375,0.107421875,8,0,8,52,15,1080.21081542969,728.475402832031,0,1,objects,small,0,1,faces,A,male,VS,F,58,E12,239.556640625
0,1,0,25328,2.990234375,0.361328125,9,0,7,43,17,950.990112304688,704.738891601562,0,1,faces,male,0,1,faces,A,male,VS,F,58,E12,239.556640625
0,1,0,25330,3.619140625,0.138671875,10,0,15,81,19,1337.93579101562,892.128051757812,0,1,objects,small,0,1,faces,A,male,VS,F,58,E12,239.556640625
0,1,0,25331,3.82421875,0.228515625,11,0,11,62,20,1141.53234863281,790.402587890625,0,1,faces,male,0,1,faces,A,male,VS,F,58,E12,239.556640625
1,1,0,25352,0.62890625,0.126953125,1,1,8,24,3,747.652709960938,646.106750488281,0,1,objects,big,0,1,objects,A,big,VS,O,59,E12,243.755859375
0,1,0,25353,0.830078125,0.181640625,2,1,11,54,4,1038.51928710938,913.523376464844,0,1,objects,small,0,1,objects,A,big,VS,O,59,E12,243.755859375
0,1,0,25354,1.072265625,0.197265625,3,1,14,70,5,1247.06433105469,717.767028808594,0,1,faces,male,0,1,objects,A,big,VS,O,59,E12,243.755859375
1,1,0,25356,1.517578125,0.13671875,4,1,13,67,7,1241.96130371094,410.31005859375,0,1,objects,big,0,1,objects,A,big,VS,O,59,E12,243.755859375
0,1,0,25357,1.703125,0.13671875,5,0,10,49,8,1103.15673828125,470.196868896484,0,1,faces,male,0,1,objects,A,big,VS,O,59,E12,243.755859375
2,1,0,25358,1.900390625,0.189453125,6,0,13,67,9,1245.29040527344,413.969024658203,0,1,objects,big,0,1,objects,A,big,VS,O,59,E12,243.755859375
0,1,0,25359,2.189453125,0.326171875,7,0,1,1,10,550.493896484375,187.842514038086,0,1,faces,female,0,1,objects,A,big,VS,O,59,E12,243.755859375
0,1,0,25360,2.576171875,0.1875,8,0,5,12,11,652.081420898438,313.895660400391,0,1,faces,female,0,1,objects,A,big,VS,O,59,E12,243.755859375
2,1,1,25362,3.056640625,0.23046875,9,0,8,24,13,740.132507324219,632.250549316406,0,1,objects,big,0,1,objects,A,big,VS,O,59,E12,243.755859375
0,1,1,25365,3.607421875,0.16796875,10,0,7,18,16,644.083129882812,933.808349609375,0,1,objects,big,0,1,objects,A,big,VS,O,59,E12,243.755859375
0,1,0,25379,0.462890625,0.107421875,1,1,5,13,1,670.874938964844,405.149536132812,0,1,faces,male,0,1,faces,A,female,VS,I,60,E12,247.955078125
1,1,0,25382,1.0625,0.197265625,2,1,9,38,4,926.9384765625,255.736022949219,0,1,objects,small,0,1,faces,A,female,VS,I,60,E12,247.955078125
0,1,1,25384,1.48046875,0.203125,3,1,12,49,6,1065.75427246094,410.718566894531,0,1,faces,female,0,1,faces,A,female,VS,I,60,E12,247.955078125
0,1,0,25386,1.94921875,0.17578125,4,1,11,46,8,1098.05029296875,140.620712280273,0,1,objects,big,0,1,faces,A,female,VS,I,60,E12,247.955078125
2,1,0,25387,2.1796875,0.115234375,5,0,9,38,9,923.593322753906,231.486129760742,0,1,objects,small,0,1,faces,A,female,VS,I,60,E12,247.955078125
0,1,0,25388,2.3359375,0.197265625,6,0,7,29,10,834.856384277344,229.507080078125,0,1,faces,male,0,1,faces,A,female,VS,I,60,E12,247.955078125
0,1,1,25390,2.7578125,0.107421875,7,0,2,8,12,580.245178222656,798.486938476562,0,1,faces,male,0,1,faces,A,female,VS,I,60,E12,247.955078125
0,1,0,25392,3.125,0.216796875,8,0,3,9,14,510.867645263672,927.756469726562,0,1,faces,female,0,1,faces,A,female,VS,I,60,E12,247.955078125
0,1,1,25393,3.419921875,0.115234375,9,0,8,33,15,834.732238769531,653.214111328125,0,1,faces,female,0,1,faces,A,female,VS,I,60,E12,247.955078125
0,1,1,25395,3.74609375,0.173828125,10,0,13,53,17,1036.80053710938,796.875061035156,0,1,faces,female,0,1,faces,A,female,VS,I,60,E12,247.955078125
0,1,0,25412,0.537109375,0.111328125,1,1,8,49,2,1057.94287109375,436.762298583984,0,1,faces,male,0,1,faces,A,female,VS,F,61,E12,252.154296875
1,1,0,25413,0.724609375,0.2421875,2,1,4,22,3,775.353454589844,399.965423583984,0,1,faces,female,0,1,faces,A,female,VS,F,61,E12,252.154296875
1,1,1,25414,1.04296875,0.107421875,3,1,3,16,4,689.903686523438,703.653747558594,0,1,faces,male,0,1,faces,A,female,VS,F,61,E12,252.154296875
1,1,0,25416,1.283203125,0.1171875,4,1,5,25,6,736.872131347656,717.566284179688,0,1,faces,female,0,1,faces,A,female,VS,F,61,E12,252.154296875
0,1,0,25417,1.4453125,0.130859375,5,0,7,34,7,835.339172363281,718.501403808594,0,1,faces,male,0,1,faces,A,female,VS,F,61,E12,252.154296875
0,1,0,25419,1.9296875,0.236328125,6,0,13,74,9,1337.79699707031,243.118408203125,0,1,faces,female,0,1,faces,A,female,VS,F,61,E12,252.154296875
1,1,0,25420,2.212890625,0.103515625,7,0,10,64,10,1303.63989257812,176.833740234375,0,1,faces,female,0,1,faces,A,female,VS,F,61,E12,252.154296875
0,1,0,25421,2.34765625,0.193359375,8,0,12,73,11,1316.7041015625,147.599853515625,0,1,faces,female,0,1,faces,A,female,VS,F,61,E12,252.154296875
2,1,0,25422,2.587890625,0.236328125,9,0,10,64,12,1232.18408203125,147.448776245117,0,1,faces,female,0,1,faces,A,female,VS,F,61,E12,252.154296875
0,1,0,25423,2.904296875,0.1484375,10,0,6,29,13,823.998840332031,231.283874511719,0,1,objects,small,0,1,faces,A,female,VS,F,61,E12,252.154296875
2,1,0,25424,3.12109375,0.388671875,11,0,4,22,14,744.327270507812,418.800598144531,0,1,faces,female,0,1,faces,A,female,VS,F,61,E12,252.154296875
2,1,1,25425,3.580078125,0.12890625,12,0,3,16,15,668.286071777344,728.059265136719,0,1,faces,male,0,1,faces,A,female,VS,F,61,E12,252.154296875
2,1,0,25427,3.841796875,0.134765625,13,0,5,25,17,751.724670410156,732.012634277344,0,1,faces,female,0,1,faces,A,female,VS,F,61,E12,252.154296875
1,1,0,25441,0.30859375,0.169921875,1,1,10,39,1,911.838623046875,343.682952880859,0,1,objects,small,0,1,faces,A,male,EX,I,62,E12,256.353515625
0,1,1,25442,0.564453125,0.193359375,2,1,4,16,2,661.749938964844,712.936706542969,0,1,faces,female,0,1,faces,A,male,EX,I,62,E12,256.353515625
0,1,0,25444,0.96484375,0.15625,3,1,5,25,4,734.914794921875,734.233764648438,0,1,faces,female,0,1,faces,A,male,EX,I,62,E12,256.353515625
2,1,0,25446,1.4140625,0.2421875,4,1,10,39,6,927.910766601562,318.316467285156,0,1,objects,small,0,1,faces,A,male,EX,I,62,E12,256.353515625
1,1,0,25447,1.72265625,0.220703125,5,0,11,56,7,1128.36022949219,245.552551269531,0,1,objects,big,0,1,faces,A,male,EX,I,62,E12,256.353515625
3,1,0,25448,2.01171875,0.537109375,6,0,10,39,8,940.712890625,328.108825683594,0,1,objects,small,0,1,faces,A,male,EX,I,62,E12,256.353515625
0,1,0,25449,2.615234375,0.3671875,7,0,12,57,9,1143.92456054688,328.962280273438,0,1,faces,male,0,1,faces,A,male,EX,I,62,E12,256.353515625
2,1,1,25450,3.03125,0.14453125,8,0,11,56,10,1194.7412109375,233.419158935547,0,1,objects,big,0,1,faces,A,male,EX,I,62,E12,256.353515625
0,1,0,25452,3.52734375,0.287109375,9,0,13,65,12,1251.71704101562,229.504089355469,0,1,objects,big,0,1,faces,A,male,EX,I,62,E12,256.353515625
0,1,1,25469,0.37109375,0.158203125,1,1,5,24,1,752.581848144531,590.662353515625,0,1,faces,female,0,0,objects,A,big,EX,O,63,E12,260.552734375
0,1,0,25471,2.02734375,0.259765625,2,1,3,15,3,647.566833496094,616.616455078125,0,1,faces,male,0,0,objects,A,big,EX,O,63,E12,260.552734375
0,1,1,25473,2.46875,0.1875,3,1,2,13,5,657.462463378906,422.355072021484,0,1,faces,male,0,0,objects,A,big,EX,O,63,E12,260.552734375
0,1,1,25475,2.84375,0.1328125,4,1,4,20,7,781.661682128906,227.434753417969,0,1,objects,big,0,0,objects,A,big,EX,O,63,E12,260.552734375
0,1,0,25477,3.54296875,0.3984375,5,0,6,29,9,863.738220214844,219.287963867188,0,1,faces,female,0,0,objects,A,big,EX,O,63,E12,260.552734375
0,1,0,25495,0.74609375,0.12109375,1,1,9,47,1,1047.38232421875,242.779037475586,0,1,faces,male,1,0,faces,P,male,VS,F,64,E12,264.751953125
0,1,1,25496,0.93359375,0.15234375,2,1,13,64,2,1286.78771972656,149.73942565918,0,1,faces,female,1,0,faces,P,male,VS,F,64,E12,264.751953125
0,1,1,25498,1.28125,0.125,3,1,14,70,4,1268.36572265625,727.455200195312,0,1,faces,male,1,0,faces,P,male,VS,F,64,E12,264.751953125
0,1,0,25500,1.58984375,0.169921875,4,1,10,54,6,1032.0517578125,906.892395019531,0,1,objects,small,1,0,faces,P,male,VS,F,64,E12,264.751953125
0,1,0,25501,1.80859375,0.146484375,5,0,7,44,7,933.628540039062,838.253601074219,0,1,faces,female,1,0,faces,P,male,VS,F,64,E12,264.751953125
0,1,0,25502,2,0.23046875,6,0,6,36,8,842.988098144531,908.216186523438,0,1,faces,male,1,0,faces,P,male,VS,F,64,E12,264.751953125
0,1,0,25506,2.68359375,0.205078125,7,0,4,23,12,731.616943359375,523.113403320312,0,1,objects,big,1,0,faces,P,male,VS,F,64,E12,264.751953125
0,1,0,25507,2.970703125,0.1171875,8,0,5,28,13,894.8017578125,178.552276611328,0,1,objects,big,1,0,faces,P,male,VS,F,64,E12,264.751953125
0,1,1,25508,3.154296875,0.123046875,9,0,8,46,14,1073.68627929688,177.614044189453,1,0,NaN,NaN,1,0,faces,P,male,VS,F,64,E12,264.751953125
0,1,0,25530,0.259765625,0.115234375,1,1,4,14,2,659.889526367188,517.495178222656,0,1,faces,female,1,1,objects,P,small,VS,O,65,E12,268.951171875
0,1,0,25532,0.580078125,0.123046875,2,1,1,10,4,653.30859375,166.121520996094,0,1,faces,male,1,1,objects,P,small,VS,O,65,E12,268.951171875
0,1,0,25535,1.265625,0.25,3,1,10,52,7,1070.03332519531,725.134948730469,0,1,objects,big,1,1,objects,P,small,VS,O,65,E12,268.951171875
0,0,1,25536,1.56640625,0.73046875,4,1,13,71,8,1244.32043457031,809.995727539062,1,0,NaN,NaN,1,1,objects,P,small,VS,O,65,E12,268.951171875
0,1,1,25555,0.548828125,0.185546875,1,1,6,37,2,911.921630859375,125.588272094727,0,1,objects,small,0,1,objects,A,small,EX,O,66,E12,273.150390625
0,1,0,25557,1.056640625,0.259765625,2,1,15,73,4,1316.51220703125,132.667938232422,0,1,faces,female,0,1,objects,A,small,EX,O,66,E12,273.150390625
0,1,1,25559,1.603515625,0.1640625,3,1,12,61,6,1134.1416015625,718.135620117188,0,1,faces,female,0,1,objects,A,small,EX,O,66,E12,273.150390625
0,1,0,25562,2.287109375,0.353515625,4,1,5,31,9,855.745666503906,416.076568603516,0,1,objects,small,0,1,objects,A,small,EX,O,66,E12,273.150390625
0,1,0,25565,3.033203125,0.548828125,5,0,3,15,12,649.828735351562,628.307678222656,0,1,objects,big,0,1,objects,A,small,EX,O,66,E12,273.150390625
0,1,1,25584,0.50390625,0.146484375,1,1,8,52,2,1055.67639160156,758.944946289062,0,1,faces,male,1,0,faces,P,male,VS,F,67,E12,277.349609375
0,1,0,25587,1.115234375,0.1328125,2,1,12,66,5,1262.591796875,318.892425537109,0,1,faces,male,1,0,faces,P,male,VS,F,67,E12,277.349609375
0,1,0,25588,1.31640625,0.21484375,3,1,11,64,6,1258.04235839844,142.041488647461,0,1,faces,female,1,0,faces,P,male,VS,F,67,E12,277.349609375
0,1,0,25590,1.798828125,0.146484375,4,1,3,23,8,778.536865234375,515.833618164062,0,1,objects,small,1,0,faces,P,male,VS,F,67,E12,277.349609375
0,1,0,25591,2.013671875,0.189453125,5,0,4,25,9,755.146240234375,749.03173828125,0,1,faces,female,1,0,faces,P,male,VS,F,67,E12,277.349609375
0,1,1,25593,2.4140625,0.109375,6,0,1,2,11,543.410339355469,216.23908996582,0,1,faces,female,1,0,faces,P,male,VS,F,67,E12,277.349609375
0,0,1,25594,2.615234375,0.224609375,7,0,2,9,12,548.324645996094,897.747375488281,1,0,NaN,NaN,1,0,faces,P,male,VS,F,67,E12,277.349609375
0,1,0,25615,0.466796875,0.21484375,1,1,6,26,3,759.65771484375,840.269409179688,0,1,faces,male,0,0,faces,P,female,VS,I,68,E12,281.548828125
1,1,0,25617,0.9375,0.109375,2,1,4,22,5,752.594360351562,401.386444091797,0,1,objects,small,0,0,faces,P,female,VS,I,68,E12,281.548828125
1,1,0,25618,1.111328125,0.130859375,3,1,10,40,6,952.656860351562,404.586364746094,0,1,faces,female,0,0,faces,P,female,VS,I,68,E12,281.548828125
0,1,1,25620,1.486328125,0.14453125,4,1,9,37,8,938.690368652344,138.771911621094,0,1,faces,male,0,0,faces,P,female,VS,I,68,E12,281.548828125
0,1,0,25622,1.7734375,0.150390625,5,0,12,46,10,1037.9833984375,120.250617980957,0,1,faces,female,0,0,faces,P,female,VS,I,68,E12,281.548828125
0,1,1,25623,2.001953125,0.11328125,6,0,15,67,11,1259.94226074219,463.516357421875,0,1,faces,male,0,0,faces,P,female,VS,I,68,E12,281.548828125
0,1,1,25626,2.458984375,0.1953125,7,0,14,53,14,1047.77709960938,806.149475097656,0,1,faces,female,0,0,faces,P,female,VS,I,68,E12,281.548828125
0,1,0,25627,2.740234375,0.126953125,8,0,7,27,15,732.651489257812,899.298217773438,0,1,objects,small,0,0,faces,P,female,VS,I,68,E12,281.548828125
2,1,0,25629,3.115234375,0.142578125,9,0,4,22,17,744.473693847656,427.647277832031,0,1,objects,small,0,0,faces,P,female,VS,I,68,E12,281.548828125
2,1,0,25630,3.322265625,0.212890625,10,0,10,40,18,959.978271484375,401.7412109375,0,1,faces,female,0,0,faces,P,female,VS,I,68,E12,281.548828125
0,1,0,25631,3.580078125,0.134765625,11,0,13,50,19,1047.32800292969,509.844146728516,0,1,objects,big,0,0,faces,P,female,VS,I,68,E12,281.548828125
0,1,0,25632,3.79296875,0.216796875,12,0,8,29,20,841.513671875,195.009963989258,0,1,faces,male,0,0,faces,P,female,VS,I,68,E12,281.548828125
1,1,0,25646,0.583984375,0.119140625,1,1,6,25,1,776.208679199219,750.295593261719,0,1,faces,male,0,1,faces,A,male,VS,I,69,E12,285.748046875
1,1,0,25648,0.892578125,0.115234375,2,1,3,11,3,666.664184570312,212.143051147461,0,1,faces,male,0,1,faces,A,male,VS,I,69,E12,285.748046875
0,1,0,25650,1.16796875,0.2890625,3,1,1,1,5,541.187622070312,109.964500427246,0,1,faces,male,0,1,faces,A,male,VS,I,69,E12,285.748046875
0,1,0,25651,1.53125,0.17578125,4,1,5,21,6,755.95458984375,328.913696289062,0,1,faces,female,0,1,faces,A,male,VS,I,69,E12,285.748046875
0,1,0,25652,1.759765625,0.244140625,5,0,4,19,7,719.637634277344,138.241149902344,0,1,faces,male,0,1,faces,A,male,VS,I,69,E12,285.748046875
2,1,0,25653,2.048828125,0.203125,6,0,3,11,8,645.491271972656,201.697265625,0,1,faces,male,0,1,faces,A,male,VS,I,69,E12,285.748046875
0,1,1,25654,2.326171875,0.123046875,7,0,9,32,9,878.557556152344,494.281951904297,0,1,faces,female,0,1,faces,A,male,VS,I,69,E12,285.748046875
0,1,0,25656,2.650390625,0.1328125,8,0,10,33,11,845.36181640625,644.873840332031,0,1,objects,small,0,1,faces,A,male,VS,I,69,E12,285.748046875
2,1,0,25657,2.828125,0.248046875,9,0,6,25,12,738.43798828125,709.595153808594,0,1,faces,male,0,1,faces,A,male,VS,I,69,E12,285.748046875
0,1,0,25658,3.125,0.10546875,10,0,11,34,13,861.65087890625,707.898559570312,0,1,faces,female,0,1,faces,A,male,VS,I,69,E12,285.748046875
0,1,0,25660,3.45703125,0.13671875,11,0,15,77,15,1333.99963378906,511.504791259766,0,1,faces,female,0,1,faces,A,male,VS,I,69,E12,285.748046875
0,1,0,25674,0.26953125,0.130859375,1,1,9,49,2,1053.12939453125,464.319366455078,1,0,NaN,NaN,1,0,faces,P,male,VS,I,70,E12,289.947265625
1,1,0,25675,0.478515625,0.205078125,2,1,5,22,3,748.095764160156,401.633087158203,0,1,faces,male,1,0,faces,P,male,VS,I,70,E12,289.947265625
1,1,0,25677,0.953125,0.205078125,3,1,7,37,5,939.42431640625,130.749557495117,0,1,faces,male,1,0,faces,P,male,VS,I,70,E12,289.947265625
1,1,1,25678,1.2109375,0.12890625,4,1,4,19,6,760.835571289062,116.213096618652,0,1,faces,male,1,0,faces,P,male,VS,I,70,E12,289.947265625
2,1,1,25680,1.5625,0.126953125,5,0,7,37,8,911.395935058594,115.096786499023,0,1,faces,male,1,0,faces,P,male,VS,I,70,E12,289.947265625
0,1,0,25682,1.935546875,0.216796875,6,0,8,46,10,1033.326171875,123.86882019043,0,1,faces,female,1,0,faces,P,male,VS,I,70,E12,289.947265625
0,1,0,25684,2.412109375,0.220703125,7,0,14,79,12,1339.86291503906,722.253601074219,0,1,faces,female,1,0,faces,P,male,VS,I,70,E12,289.947265625
0,1,0,25685,2.705078125,0.189453125,8,0,11,63,13,1147.34423828125,902.549133300781,0,1,faces,female,1,0,faces,P,male,VS,I,70,E12,289.947265625
2,1,1,25687,3.22265625,0.12890625,9,0,4,19,15,717.644897460938,127.869926452637,0,1,faces,male,1,0,faces,P,male,VS,I,70,E12,289.947265625
0,1,0,25689,3.67578125,0.16015625,10,0,3,14,17,686.169921875,525.15576171875,0,1,faces,male,1,0,faces,P,male,VS,I,70,E12,289.947265625
2,1,0,25690,3.88671875,0.171875,11,0,5,22,18,756.558959960938,411.959564208984,0,1,faces,male,1,0,faces,P,male,VS,I,70,E12,289.947265625
0,1,0,25703,0.408203125,0.125,1,1,9,50,2,1054.62036132812,537.6845703125,0,1,faces,female,0,1,faces,A,male,EX,F,71,E12,294.146484375
1,1,1,25704,1.23828125,0.48046875,2,1,8,33,3,869.020385742188,621.132751464844,0,1,objects,small,0,1,faces,A,male,EX,F,71,E12,294.146484375
2,1,0,25708,3.09375,0.107421875,3,1,8,33,7,868.665649414062,608.427978515625,0,1,objects,small,0,1,faces,A,male,EX,F,71,E12,294.146484375
0,1,0,25709,3.263671875,0.390625,4,1,10,51,8,1059.22082519531,687.548278808594,0,1,objects,big,0,1,faces,A,male,EX,F,71,E12,294.146484375
0,1,0,25710,3.68359375,0.58203125,5,0,11,52,9,1063.55419921875,700.287780761719,0,1,objects,small,0,1,faces,A,male,EX,F,71,E12,294.146484375
0,1,0,25727,0.279296875,0.154296875,1,1,8,49,2,1076.51953125,434.377136230469,0,1,faces,female,1,0,faces,P,male,VS,I,72,E12,298.345703125
0,1,1,25728,0.501953125,0.185546875,2,1,13,66,3,1306.64050292969,340.606414794922,0,1,faces,female,1,0,faces,P,male,VS,I,72,E12,298.345703125
0,1,0,25731,1.029296875,0.158203125,3,1,6,37,6,956.552978515625,128.519958496094,0,1,faces,male,1,0,faces,P,male,VS,I,72,E12,298.345703125
0,1,0,25732,1.271484375,0.18359375,4,1,2,14,7,653.311096191406,569.25439453125,0,1,objects,small,1,0,faces,P,male,VS,I,72,E12,298.345703125
0,1,0,25733,1.5234375,0.12109375,5,0,1,8,8,585.155700683594,814.993713378906,0,1,objects,big,1,0,faces,P,male,VS,I,72,E12,298.345703125
0,1,0,25734,1.681640625,0.142578125,6,0,3,17,9,634.349853515625,814.974609375,0,1,objects,big,1,0,faces,P,male,VS,I,72,E12,298.345703125
0,1,0,25736,2.0703125,0.177734375,7,0,9,54,11,1035.13842773438,893.450805664062,0,1,faces,female,1,0,faces,P,male,VS,I,72,E12,298.345703125
0,1,0,25738,2.517578125,0.11328125,8,0,5,31,13,833.348999023438,459.9658203125,0,1,faces,female,1,0,faces,P,male,VS,I,72,E12,298.345703125
0,0,1,25739,2.67578125,1.052734375,9,0,4,23,14,747.296203613281,527.640197753906,1,0,NaN,NaN,1,0,faces,P,male,VS,I,72,E12,298.345703125
0,1,0,25969,0.240234375,0.10546875,1,1,10,49,1,1023.66723632812,457.021057128906,0,1,objects,big,0,1,objects,P,small,VS,O,73,E12,302.544921875
1,1,0,25970,0.38671875,0.1640625,2,1,9,41,2,943.373596191406,492.418701171875,0,1,faces,male,0,1,objects,P,small,VS,O,73,E12,302.544921875
0,1,0,25971,0.595703125,0.111328125,3,1,8,40,3,971.865112304688,436.186920166016,0,1,faces,male,0,1,objects,P,small,VS,O,73,E12,302.544921875
0,1,0,25973,1.052734375,0.119140625,4,1,7,34,5,837.238342285156,700.607482910156,0,1,faces,female,0,1,objects,P,small,VS,O,73,E12,302.544921875
0,1,0,25974,1.240234375,0.234375,5,0,3,14,6,641.562438964844,565.993835449219,0,1,faces,female,0,1,objects,P,small,VS,O,73,E12,302.544921875
0,1,0,25975,1.541015625,0.201171875,6,0,2,7,7,529.723693847656,719.395568847656,0,1,objects,big,0,1,objects,P,small,VS,O,73,E12,302.544921875
2,1,0,25979,3.65625,0.8515625,7,0,9,41,11,1001.92352294922,546.705749511719,0,1,faces,male,0,1,objects,P,small,VS,O,73,E12,302.544921875
0,1,0,25996,0.236328125,0.142578125,1,1,12,59,1,1170.30871582031,561.002807617188,0,1,faces,female,0,1,objects,A,small,VS,O,74,E12,306.744140625
1,1,0,26000,0.962890625,0.150390625,2,1,3,11,5,651.965270996094,232.763977050781,0,1,objects,small,0,1,objects,A,small,VS,O,74,E12,306.744140625
0,1,0,26001,1.1796875,0.146484375,3,1,6,31,6,850.327026367188,408.352294921875,0,1,faces,male,0,1,objects,A,small,VS,O,74,E12,306.744140625
2,1,0,26004,1.7578125,0.31640625,4,1,3,11,9,625.081665039062,216.830902099609,0,1,objects,small,0,1,objects,A,small,VS,O,74,E12,306.744140625
0,1,0,26007,2.61328125,0.201171875,5,0,14,71,12,1234.70886230469,850.698669433594,0,1,objects,big,0,1,objects,A,small,VS,O,74,E12,306.744140625
0,1,0,26008,2.892578125,0.1796875,6,0,8,34,13,864.671813964844,768.034790039062,0,1,faces,female,0,1,objects,A,small,VS,O,74,E12,306.744140625
0,1,1,26009,3.123046875,0.173828125,7,0,7,33,14,819.084594726562,597.950378417969,0,1,objects,big,0,1,objects,A,small,VS,O,74,E12,306.744140625
0,1,1,26011,3.53125,0.24609375,8,0,1,7,16,510.686767578125,708.762634277344,0,1,objects,small,0,1,objects,A,small,VS,O,74,E12,306.744140625
1,1,1,26026,0.421875,0.12890625,1,1,7,34,2,867.5654296875,757.104919433594,0,1,faces,male,0,1,objects,A,big,VS,O,75,E12,310.943359375
0,1,0,26029,0.9296875,0.21875,2,1,8,37,5,937.828430175781,120.813980102539,0,1,objects,small,0,1,objects,A,big,VS,O,75,E12,310.943359375
0,1,0,26030,1.212890625,0.23828125,3,1,11,55,6,1123.83410644531,122.118232727051,0,1,objects,big,0,1,objects,A,big,VS,O,75,E12,310.943359375
0,1,0,26032,1.783203125,0.134765625,4,1,14,78,8,1329.53991699219,662.561706542969,0,1,faces,female,0,1,objects,A,big,VS,O,75,E12,310.943359375
0,1,0,26033,1.98828125,0.12109375,5,0,15,81,9,1320.06506347656,917.535522460938,0,1,faces,female,0,1,objects,A,big,VS,O,75,E12,310.943359375
0,1,0,26034,2.189453125,0.10546875,6,0,9,43,10,996.891174316406,781.119689941406,0,1,objects,small,0,1,objects,A,big,VS,O,75,E12,310.943359375
2,1,0,26035,2.34375,0.203125,7,0,7,34,11,888.904052734375,721.364013671875,0,1,faces,male,0,1,objects,A,big,VS,O,75,E12,310.943359375
0,1,0,26038,3.078125,0.279296875,8,0,6,30,14,829.843688964844,316.597961425781,0,1,faces,female,0,1,objects,A,big,VS,O,75,E12,310.943359375
0,1,1,26039,3.43359375,0.220703125,9,0,2,5,15,520.474853515625,526.00927734375,0,1,objects,big,0,1,objects,A,big,VS,O,75,E12,310.943359375
0,1,0,26056,0.79296875,0.123046875,1,1,1,3,1,602.757507324219,299.859619140625,0,1,objects,small,0,0,faces,P,female,VS,F,76,E12,315.142578125
0,1,1,26059,1.404296875,0.1171875,2,1,2,5,4,539.787231445312,510.648803710938,0,1,faces,male,0,0,faces,P,female,VS,F,76,E12,315.142578125
1,1,1,26065,2.453125,0.1171875,3,1,8,33,10,840.425598144531,647.6552734375,0,1,faces,female,0,0,faces,P,female,VS,F,76,E12,315.142578125
0,1,1,26068,3.09765625,0.12109375,4,1,14,76,13,1358.68933105469,479.402557373047,0,1,faces,male,0,0,faces,P,female,VS,F,76,E12,315.142578125
0,1,0,26071,3.6015625,0.271484375,5,0,7,27,16,735.075378417969,925.175048828125,0,1,faces,female,0,0,faces,P,female,VS,F,76,E12,315.142578125
2,1,0,26072,3.94921875,0.32421875,6,0,8,33,17,843.979370117188,627.312133789062,0,1,faces,female,0,0,faces,P,female,VS,F,76,E12,315.142578125
0,1,0,26090,0.404296875,0.14453125,1,1,5,31,2,823.717346191406,426.317016601562,0,1,faces,female,0,1,faces,A,female,VS,I,77,E12,319.341796875
0,1,0,26091,0.623046875,0.162109375,2,1,1,5,3,550.745849609375,557.293701171875,0,1,objects,big,0,1,faces,A,female,VS,I,77,E12,319.341796875
0,1,1,26092,0.837890625,0.166015625,3,1,3,13,4,625.446472167969,431.617706298828,0,1,faces,male,0,1,faces,A,female,VS,I,77,E12,319.341796875
1,1,1,26095,1.59375,0.1328125,4,1,10,63,7,1117.05383300781,903.809387207031,0,1,faces,female,0,1,faces,A,female,VS,I,77,E12,319.341796875
0,1,1,26097,1.876953125,0.177734375,5,0,15,81,9,1324.63146972656,922.856628417969,0,1,faces,female,0,1,faces,A,female,VS,I,77,E12,319.341796875
2,1,1,26099,2.294921875,0.119140625,6,0,10,63,11,1194.39880371094,919.118713378906,0,1,faces,female,0,1,faces,A,female,VS,I,77,E12,319.341796875
0,1,0,26101,2.705078125,0.208984375,7,0,8,45,13,936.564025878906,923.279724121094,0,1,faces,male,0,1,faces,A,female,VS,I,77,E12,319.341796875
0,1,1,26103,3.15234375,0.232421875,8,0,14,76,15,1346.07666015625,415.787048339844,0,1,faces,female,0,1,faces,A,female,VS,I,77,E12,319.341796875
0,1,0,26105,3.654296875,0.2734375,9,0,11,66,17,1249.35998535156,324.348663330078,0,1,faces,male,0,1,faces,A,female,VS,I,77,E12,319.341796875
0,1,0,26117,0.21875,0.138671875,1,1,5,22,1,738.332214355469,425.825775146484,0,1,objects,big,0,1,faces,A,female,EX,F,78,E12,323.541015625
0,1,0,26118,0.42578125,0.12890625,2,1,9,49,2,1027.43542480469,394.496643066406,0,1,faces,male,0,1,faces,A,female,EX,F,78,E12,323.541015625
0,1,1,26121,0.90234375,0.138671875,3,1,1,1,5,522.979431152344,91.9736862182617,0,1,faces,female,0,1,faces,A,female,EX,F,78,E12,323.541015625
0,1,0,26122,1.0859375,0.30078125,4,1,3,10,6,613.893920898438,96.0801467895508,0,1,faces,female,0,1,faces,A,female,EX,F,78,E12,323.541015625
0,1,0,26123,1.478515625,0.24609375,5,0,12,58,7,1118.36669921875,470.485534667969,0,1,faces,female,0,1,faces,A,female,EX,F,78,E12,323.541015625
1,1,0,26125,1.931640625,0.2890625,6,0,14,68,9,1252.99499511719,532.916748046875,0,1,faces,male,0,1,faces,A,female,EX,F,78,E12,323.541015625
0,1,0,26127,2.478515625,0.19921875,7,0,4,17,11,611.076110839844,835.913269042969,0,1,faces,female,0,1,faces,A,female,EX,F,78,E12,323.541015625
2,1,1,26128,2.765625,0.193359375,8,0,14,68,12,1256.43872070312,512.646118164062,0,1,faces,male,0,1,faces,A,female,EX,F,78,E12,323.541015625
0,1,0,26130,3.45703125,0.47265625,9,0,13,60,14,1163.98962402344,636.470092773438,0,1,faces,female,0,1,faces,A,female,EX,F,78,E12,323.541015625
0,1,0,26149,0.408203125,0.212890625,1,1,3,20,3,710.240661621094,288.527191162109,0,1,objects,small,1,1,objects,P,small,VS,O,79,E12,327.740234375
0,1,0,26150,0.67578125,0.1328125,2,1,2,19,4,716.54833984375,110.503074645996,0,1,faces,male,1,1,objects,P,small,VS,O,79,E12,327.740234375
0,1,1,26152,1.037109375,0.16015625,3,1,5,25,6,727.1142578125,765.238830566406,1,0,NaN,NaN,1,1,objects,P,small,VS,O,79,E12,327.740234375
0,0,0,26154,2.2890625,0.64453125,4,1,12,59,8,1144.40515136719,534.3173828125,0,1,objects,big,1,1,objects,P,small,VS,O,79,E12,327.740234375
0,0,1,26155,2.986328125,0.177734375,5,0,9,49,9,1051.06958007812,412.140716552734,0,1,faces,male,1,1,objects,P,small,VS,O,79,E12,327.740234375
0,0,0,26157,3.330078125,0.279296875,6,0,10,57,11,1138.09094238281,313.996398925781,0,1,faces,female,1,1,objects,P,small,VS,O,79,E12,327.740234375
0,1,0,26174,0.671875,0.109375,1,1,9,38,3,919.661010742188,199.243621826172,0,1,faces,male,1,1,objects,P,big,VS,O,80,E12,331.939453125
0,1,0,26175,0.82421875,0.103515625,2,1,8,37,4,925.100402832031,124.239082336426,0,1,objects,small,1,1,objects,P,big,VS,O,80,E12,331.939453125
0,0,1,26176,1.001953125,0.3203125,3,1,6,21,5,727.879150390625,295.295837402344,1,0,NaN,NaN,1,1,objects,P,big,VS,O,80,E12,331.939453125
0,0,0,26178,2.0234375,0.107421875,4,1,4,14,7,688.166931152344,546.864074707031,0,1,faces,female,1,1,objects,P,big,VS,O,80,E12,331.939453125
0,0,1,26179,2.17578125,0.408203125,5,0,7,24,8,722.661682128906,606.185546875,0,1,objects,small,1,1,objects,P,big,VS,O,80,E12,331.939453125
0,1,1,26189,0.458984375,0.130859375,1,1,5,20,1,773.80078125,276.4375,0,1,faces,female,0,1,faces,A,female,EX,I,81,E12,336.138671875
1,1,1,26193,1.412109375,0.197265625,2,1,9,51,5,1057.95739746094,596.079040527344,0,1,faces,female,0,1,faces,A,female,EX,I,81,E12,336.138671875
