refix,pretarget,multifix,urevent,tonset,dur_added,rank,first_rank,stposrel,stposabs,n,x,y,istarget,isdistractor,distractor_cat,ditractor_atr,trial_targetseen,trial_correct,trial_cat,trial_resp,trial_atr,trial_type,trial_cattype,trial_number,trial_subject,trial_bgn_latency
0,1,0,23767,0.44921875,0.466796875,1,1,10,42,2,932.995910644531,639.862243652344,0,1,objects,big,0,0,faces,A,female,EX,I,1,J03,0.201171875
1,1,1,23769,1.173828125,0.216796875,2,1,5,21,4,747.841430664062,333.215515136719,0,1,faces,female,0,0,faces,A,female,EX,I,1,J03,0.201171875
0,1,0,23772,1.859375,0.21484375,3,1,13,60,7,1128.13293457031,610.131225585938,0,1,faces,male,0,0,faces,A,female,EX,I,1,J03,0.201171875
0,1,0,23777,2.923828125,0.203125,4,1,12,59,12,1131.12780761719,545.921997070312,0,1,objects,big,0,0,faces,A,female,EX,I,1,J03,0.201171875
2,1,1,23779,3.384765625,0.1875,5,0,5,21,14,746.236999511719,327.720794677734,0,1,faces,female,0,0,faces,A,female,EX,I,1,J03,0.201171875
0,1,1,23798,0.283203125,0.125,1,1,10,52,1,1074.61181640625,742.621154785156,1,0,NaN,NaN,1,0,faces,P,male,VS,F,2,J03,4.400390625
0,0,0,23800,0.990234375,0.1953125,2,1,5,32,3,853.863098144531,567.232543945312,0,1,objects,small,1,0,faces,P,male,VS,F,2,J03,4.400390625
0,0,0,23801,1.216796875,0.3203125,3,1,2,14,4,650.272705078125,550.5234375,0,1,faces,male,1,0,faces,P,male,VS,F,2,J03,4.400390625
0,0,1,23802,1.5859375,0.15625,4,1,3,26,5,750.650512695312,808.852172851562,0,1,faces,male,1,0,faces,P,male,VS,F,2,J03,4.400390625
0,0,0,23804,2.03515625,0.392578125,5,0,14,79,7,1330.52954101562,728.680908203125,0,1,faces,female,1,0,faces,P,male,VS,F,2,J03,4.400390625
0,0,0,23805,2.443359375,0.341796875,6,0,13,70,8,1236.357421875,732.13671875,0,1,faces,female,1,0,faces,P,male,VS,F,2,J03,4.400390625
0,0,0,23807,2.986328125,0.150390625,7,0,12,66,10,1235.02014160156,317.8662109375,0,1,objects,small,1,0,faces,P,male,VS,F,2,J03,4.400390625
0,0,1,23808,3.169921875,0.2578125,8,0,8,47,11,1051.15307617188,243.450958251953,0,1,faces,female,1,0,faces,P,male,VS,F,2,J03,4.400390625
0,0,0,23810,3.935546875,0.134765625,9,0,1,13,13,616.215942382812,451.605529785156,0,1,faces,female,1,0,faces,P,male,VS,F,2,J03,4.400390625
1,1,0,23828,0.4296875,0.177734375,1,1,11,56,2,1130.96508789062,243.487655639648,0,1,faces,female,0,0,faces,A,male,VS,I,3,J03,8.599609375
0,1,0,23829,0.642578125,0.4140625,2,1,8,37,3,934.43115234375,144.587326049805,0,1,faces,female,0,0,faces,A,male,VS,I,3,J03,8.599609375
2,1,1,23830,1.10546875,0.12109375,3,1,11,56,4,1164.94458007812,226.93913269043,0,1,faces,female,0,0,faces,A,male,VS,I,3,J03,8.599609375
0,1,0,23832,1.521484375,0.326171875,4,1,15,75,6,1328.83166503906,325.3955078125,0,1,faces,male,0,0,faces,A,male,VS,I,3,J03,8.599609375
0,1,1,23834,2.0546875,0.13671875,5,0,14,68,8,1257.83227539062,504.188385009766,0,1,faces,male,0,0,faces,A,male,VS,I,3,J03,8.599609375
0,1,0,23836,2.359375,0.4140625,6,0,10,52,10,1040.09399414062,718.2490234375,0,1,faces,female,0,0,faces,A,male,VS,I,3,J03,8.599609375
0,1,0,23837,2.798828125,0.294921875,7,0,12,62,11,1127.32849121094,831.067810058594,0,1,objects,small,0,0,faces,A,male,VS,I,3,J03,8.599609375
0,1,0,23838,3.109375,0.419921875,8,0,13,63,12,1124.369140625,911.223754882812,0,1,faces,female,0,0,faces,A,male,VS,I,3,J03,8.599609375
0,1,1,23839,3.576171875,0.26171875,9,0,5,27,13,748.587951660156,904.314758300781,0,1,faces,male,0,0,faces,A,male,VS,I,3,J03,8.599609375
0,1,0,23859,0.369140625,0.28515625,1,1,11,50,2,1045.61267089844,547.485107421875,0,1,objects,big,0,1,objects,A,big,EX,O,4,J03,12.798828125
0,1,1,23860,0.703125,0.109375,2,1,14,79,3,1359.95971679688,707.950134277344,0,1,faces,male,0,1,objects,A,big,EX,O,4,J03,12.798828125
0,1,1,23862,1.134765625,0.189453125,3,1,15,81,5,1354.79675292969,912.668273925781,0,1,faces,female,0,1,objects,A,big,EX,O,4,J03,12.798828125
0,1,1,23864,1.677734375,0.119140625,4,1,2,18,7,694.005920410156,894.430053710938,0,1,faces,male,0,1,objects,A,big,EX,O,4,J03,12.798828125
0,1,0,23867,2.193359375,0.279296875,5,0,6,26,10,723.52099609375,841.907104492188,0,1,faces,female,0,1,objects,A,big,EX,O,4,J03,12.798828125
0,1,1,23868,2.505859375,0.142578125,6,0,5,23,11,739.042053222656,508.597869873047,0,1,faces,male,0,1,objects,A,big,EX,O,4,J03,12.798828125
0,1,0,23870,2.994140625,0.20703125,7,0,1,12,13,624.757202148438,343.281799316406,0,1,faces,female,0,1,objects,A,big,EX,O,4,J03,12.798828125
0,1,0,23871,3.22265625,0.134765625,8,0,8,30,14,856.103332519531,338.234558105469,0,1,faces,female,0,1,objects,A,big,EX,O,4,J03,12.798828125
0,1,0,23872,3.39453125,0.3671875,9,0,9,39,15,961.206115722656,348.801818847656,0,1,faces,female,0,1,objects,A,big,EX,O,4,J03,12.798828125
0,1,1,23873,3.8203125,0.154296875,10,0,3,19,16,802.9814453125,177.616287231445,0,1,objects,small,0,1,objects,A,big,EX,O,4,J03,12.798828125
0,1,0,23891,0.42578125,0.115234375,1,1,4,33,2,843.575500488281,667.283020019531,0,1,faces,female,1,0,faces,P,female,VS,I,5,J03,16.998046875
0,1,1,23892,0.578125,0.162109375,2,1,5,36,3,825.438232421875,950.968627929688,0,1,faces,male,1,0,faces,P,female,VS,I,5,J03,16.998046875
0,1,0,23894,0.958984375,0.513671875,3,1,13,72,5,1247.80908203125,924.934509277344,0,1,faces,female,1,0,faces,P,female,VS,I,5,J03,16.998046875
0,1,0,23896,1.669921875,0.19140625,4,1,11,66,7,1235.74987792969,343.680847167969,0,1,faces,male,1,0,faces,P,female,VS,I,5,J03,16.998046875
0,1,0,23897,1.884765625,0.3125,5,0,7,57,8,1146.48559570312,342.02783203125,0,1,faces,female,1,0,faces,P,female,VS,I,5,J03,16.998046875
0,1,0,23899,2.3984375,0.173828125,6,0,2,13,10,650.127258300781,428.051391601562,0,1,objects,big,1,0,faces,P,female,VS,I,5,J03,16.998046875
0,1,1,23900,2.615234375,0.134765625,7,0,1,1,11,524.679931640625,104.85969543457,0,1,faces,male,1,0,faces,P,female,VS,I,5,J03,16.998046875
0,1,0,23903,3.2265625,0.35546875,8,0,14,76,14,1357.48193359375,440.515655517578,0,1,faces,male,1,0,faces,P,female,VS,I,5,J03,16.998046875
0,1,1,23904,3.6328125,0.150390625,9,0,6,52,15,1022.77270507812,717.483703613281,0,1,objects,big,1,0,faces,P,female,VS,I,5,J03,16.998046875
0,0,0,23906,3.9453125,0.369140625,10,0,9,61,17,1151.34106445312,746.211486816406,1,0,NaN,NaN,1,0,faces,P,female,VS,I,5,J03,16.998046875
0,1,0,23922,0.501953125,0.12890625,1,1,10,61,2,1161.43090820312,719.367309570312,0,1,faces,female,1,1,objects,P,big,VS,O,6,J03,21.197265625
0,1,1,23923,0.685546875,0.134765625,2,1,9,58,3,1136.748046875,389.606842041016,0,1,faces,male,1,1,objects,P,big,VS,O,6,J03,21.197265625
1,1,0,23925,1.033203125,0.47265625,3,1,7,49,5,1035.02954101562,438.301574707031,0,1,faces,female,1,1,objects,P,big,VS,O,6,J03,21.197265625
2,1,1,23927,1.693359375,0.142578125,4,1,7,49,7,1081.98291015625,449.668823242188,0,1,faces,female,1,1,objects,P,big,VS,O,6,J03,21.197265625
0,1,1,23929,2.037109375,0.197265625,5,0,14,75,9,1353.9619140625,315.641967773438,0,1,faces,female,1,1,objects,P,big,VS,O,6,J03,21.197265625
0,1,1,23931,2.53125,0.18359375,6,0,6,47,11,1038.30798339844,218.129867553711,0,1,faces,male,1,1,objects,P,big,VS,O,6,J03,21.197265625
1,0,0,23934,3.193359375,0.2578125,7,0,15,78,14,1366.18395996094,622.546264648438,1,0,NaN,NaN,1,1,objects,P,big,VS,O,6,J03,21.197265625
0,0,0,23936,3.65234375,0.150390625,8,0,11,63,16,1144.80139160156,899.818054199219,0,1,objects,big,1,1,objects,P,big,VS,O,6,J03,21.197265625
2,0,1,23937,3.861328125,0.11328125,9,0,15,78,17,1375.41906738281,590.710571289062,1,0,NaN,NaN,1,1,objects,P,big,VS,O,6,J03,21.197265625
0,1,1,23954,0.294921875,0.111328125,1,1,9,48,1,1018.24420166016,375.201629638672,0,1,objects,small,1,1,faces,P,male,VS,I,7,J03,25.396484375
1,1,0,23956,0.537109375,0.302734375,2,1,14,76,3,1345.37524414062,411.267578125,0,1,faces,female,1,1,faces,P,male,VS,I,7,J03,25.396484375
0,1,1,23957,0.8984375,0.212890625,3,1,7,37,4,973.325561523438,123.102058410645,0,1,faces,male,1,1,faces,P,male,VS,I,7,J03,25.396484375
0,1,0,23959,1.28515625,0.294921875,4,1,1,1,6,540.905456542969,106.188201904297,0,1,faces,female,1,1,faces,P,male,VS,I,7,J03,25.396484375
2,1,0,23961,1.802734375,0.353515625,5,0,14,76,8,1336.65637207031,412.005004882812,0,1,faces,female,1,1,faces,P,male,VS,I,7,J03,25.396484375
0,1,1,23962,2.181640625,0.16796875,6,0,13,68,9,1236.26513671875,503.417510986328,0,1,faces,male,1,1,faces,P,male,VS,I,7,J03,25.396484375
0,1,0,23965,2.748046875,0.3125,7,0,8,41,12,945.991577148438,544.763366699219,0,1,objects,small,1,1,faces,P,male,VS,I,7,J03,25.396484375
0,1,0,23967,3.26953125,0.27734375,8,0,15,80,14,1345.77465820312,821.393249511719,0,1,faces,male,1,1,faces,P,male,VS,I,7,J03,25.396484375
0,0,1,23968,3.568359375,0.267578125,9,0,12,62,15,1150.9765625,827.444763183594,1,0,NaN,NaN,1,1,faces,P,male,VS,I,7,J03,25.396484375
0,1,1,23987,0.244140625,0.130859375,1,1,7,44,1,955.075500488281,828.363037109375,0,1,faces,male,1,0,faces,P,female,VS,F,8,J03,29.595703125
0,1,0,23989,0.546875,0.1328125,2,1,10,52,3,1030.64135742188,722.814392089844,0,1,faces,male,1,0,faces,P,female,VS,F,8,J03,29.595703125
0,1,1,23990,0.712890625,0.16796875,3,1,8,48,4,1080.314453125,307.773803710938,0,1,faces,female,1,0,faces,P,female,VS,F,8,J03,29.595703125
0,1,1,23994,2.068359375,0.150390625,4,1,11,56,8,1207.07690429688,239.43879699707,1,0,NaN,NaN,1,0,faces,P,female,VS,F,8,J03,29.595703125
0,0,0,23997,2.7890625,0.228515625,5,0,2,12,11,625.935241699219,332.088623046875,0,1,objects,small,1,0,faces,P,female,VS,F,8,J03,29.595703125
0,0,0,23998,3.046875,0.28515625,6,0,1,4,12,550.983703613281,426.545349121094,0,1,faces,male,1,0,faces,P,female,VS,F,8,J03,29.595703125
0,0,0,24000,3.619140625,0.16796875,7,0,4,28,14,816.73193359375,150.899078369141,0,1,faces,male,1,0,faces,P,female,VS,F,8,J03,29.595703125
0,0,0,24001,3.830078125,0.17578125,8,0,13,74,15,1368.53918457031,251.025970458984,0,1,objects,big,1,0,faces,P,female,VS,F,8,J03,29.595703125
1,1,1,24021,0.185546875,0.15625,1,1,10,57,1,1120.49731445312,320.280212402344,0,1,faces,male,0,0,faces,A,male,EX,I,9,J03,33.794921875
0,1,0,24023,0.677734375,0.431640625,2,1,9,56,3,1136.14599609375,210.054122924805,0,1,faces,female,0,0,faces,A,male,EX,I,9,J03,33.794921875
2,1,0,24024,1.125,0.236328125,3,1,10,57,4,1144.69274902344,341.539947509766,0,1,faces,male,0,0,faces,A,male,EX,I,9,J03,33.794921875
0,1,0,24025,1.400390625,0.224609375,4,1,13,67,5,1249.20178222656,429.275634765625,0,1,objects,small,0,0,faces,A,male,EX,I,9,J03,33.794921875
0,1,0,24026,1.6875,0.23046875,5,0,15,78,6,1339.19384765625,634.297180175781,0,1,faces,male,0,0,faces,A,male,EX,I,9,J03,33.794921875
0,1,0,24027,1.935546875,0.39453125,6,0,12,61,7,1142.7802734375,728.825256347656,0,1,faces,male,0,0,faces,A,male,EX,I,9,J03,33.794921875
0,1,0,24029,2.5390625,0.25,7,0,5,24,9,726.444274902344,625.073791503906,0,1,faces,male,0,0,faces,A,male,EX,I,9,J03,33.794921875
0,1,0,24030,2.8203125,0.134765625,8,0,8,42,10,929.017822265625,637.269958496094,0,1,objects,big,0,0,faces,A,male,EX,I,9,J03,33.794921875
0,1,0,24031,3.0078125,0.279296875,9,0,1,9,11,531.36328125,899.925109863281,0,1,objects,big,0,0,faces,A,male,EX,I,9,J03,33.794921875
1,1,0,24032,3.3359375,0.353515625,10,0,4,21,12,720.796630859375,327.7470703125,0,1,faces,female,0,0,faces,A,male,EX,I,9,J03,33.794921875
0,1,0,24033,3.71484375,0.12890625,11,0,3,20,13,782.374938964844,268.863128662109,0,1,faces,female,0,0,faces,A,male,EX,I,9,J03,33.794921875
2,1,0,24034,3.869140625,0.4375,12,0,4,21,14,735.378479003906,366.830261230469,0,1,faces,female,0,0,faces,A,male,EX,I,9,J03,33.794921875
0,1,1,24052,0.38671875,0.169921875,1,1,8,31,2,851.360107421875,411.812774658203,0,1,objects,small,0,0,objects,P,big,VS,O,10,J03,37.994140625
0,1,1,24055,1.3046875,0.138671875,2,1,12,66,5,1291.27062988281,358.683349609375,0,1,objects,small,0,0,objects,P,big,VS,O,10,J03,37.994140625
0,1,0,24058,1.892578125,0.396484375,3,1,7,20,8,732.862609863281,217.282485961914,0,1,objects,small,0,0,objects,P,big,VS,O,10,J03,37.994140625
0,1,0,24059,2.40234375,0.1484375,4,1,14,77,9,1353.82153320312,541.040405273438,0,1,faces,male,0,0,objects,P,big,VS,O,10,J03,37.994140625
0,1,0,24061,2.71484375,0.208984375,5,0,15,79,11,1344.38903808594,741.038940429688,0,1,faces,female,0,0,objects,P,big,VS,O,10,J03,37.994140625
0,1,0,24062,2.951171875,0.185546875,6,0,11,54,12,1035.93774414062,900.417663574219,0,1,objects,big,0,0,objects,P,big,VS,O,10,J03,37.994140625
0,1,0,24063,3.16796875,0.3828125,7,0,10,44,13,936.907775878906,853.113830566406,0,1,faces,male,0,0,objects,P,big,VS,O,10,J03,37.994140625
0,1,1,24066,3.79296875,0.45703125,8,0,5,16,16,619.279174804688,744.47607421875,0,1,faces,female,0,0,objects,P,big,VS,O,10,J03,37.994140625
1,1,1,24085,0.537109375,0.125,1,1,7,38,2,961.30126953125,289.498016357422,0,1,objects,small,0,1,objects,A,big,VS,O,11,J03,42.193359375
1,1,0,24087,0.87890625,0.134765625,2,1,12,64,4,1277.38793945312,132.451873779297,0,1,faces,female,0,1,objects,A,big,VS,O,11,J03,42.193359375
0,1,0,24088,1.037109375,0.28515625,3,1,13,74,5,1334.7353515625,193.092727661133,0,1,objects,small,0,1,objects,A,big,VS,O,11,J03,42.193359375
1,1,0,24089,1.392578125,0.22265625,4,1,9,45,6,985.723327636719,907.599975585938,0,1,objects,big,0,1,objects,A,big,VS,O,11,J03,42.193359375
0,1,0,24090,1.638671875,0.115234375,5,0,11,54,7,1017.19573974609,920.26220703125,0,1,faces,female,0,1,objects,A,big,VS,O,11,J03,42.193359375
2,1,0,24091,1.78125,0.12890625,6,0,9,45,8,918.703186035156,926.634887695312,0,1,objects,big,0,1,objects,A,big,VS,O,11,J03,42.193359375
0,1,1,24092,1.955078125,0.17578125,7,0,15,81,9,1360.14831542969,912.41552734375,0,1,faces,female,0,1,objects,A,big,VS,O,11,J03,42.193359375
0,1,0,24095,2.46875,0.380859375,8,0,5,32,12,837.490539550781,530.946594238281,0,1,objects,big,0,1,objects,A,big,VS,O,11,J03,42.193359375
0,1,0,24097,3.060546875,0.267578125,9,0,6,37,14,936.048278808594,106.406402587891,0,1,faces,male,0,1,objects,A,big,VS,O,11,J03,42.193359375
2,1,1,24098,3.35546875,0.19921875,10,0,7,38,15,938.851867675781,193.444808959961,0,1,objects,small,0,1,objects,A,big,VS,O,11,J03,42.193359375
2,1,0,24100,3.853515625,0.1484375,11,0,12,64,17,1243.84130859375,115.969032287598,0,1,faces,female,0,1,objects,A,big,VS,O,11,J03,42.193359375
0,1,0,24118,0.291015625,0.107421875,1,1,3,12,2,628.082763671875,364.051361083984,0,1,faces,female,1,0,objects,P,big,VS,O,12,J03,46.392578125
0,1,0,24120,0.595703125,0.1328125,2,1,6,28,4,842.507751464844,112.924278259277,0,1,objects,big,1,0,objects,P,big,VS,O,12,J03,46.392578125
0,1,0,24123,1.158203125,0.197265625,3,1,14,70,7,1271.634765625,723.704895019531,0,1,objects,big,1,0,objects,P,big,VS,O,12,J03,46.392578125
1,0,0,24124,1.369140625,0.21875,4,1,13,69,8,1257.09204101562,642.090515136719,1,0,NaN,NaN,1,0,objects,P,big,VS,O,12,J03,46.392578125
0,0,0,24127,1.9296875,0.12890625,5,0,9,55,11,1144.93640136719,114.772583007812,0,1,objects,small,1,0,objects,P,big,VS,O,12,J03,46.392578125
2,0,0,24128,2.115234375,0.69921875,6,0,13,69,12,1259.59106445312,640.233032226562,1,0,NaN,NaN,1,0,objects,P,big,VS,O,12,J03,46.392578125
0,0,0,24129,2.951171875,0.111328125,7,0,8,52,13,1060.89794921875,787.269165039062,0,1,faces,female,1,0,objects,P,big,VS,O,12,J03,46.392578125
0,0,0,24130,3.09765625,0.1484375,8,0,7,36,14,844.325439453125,914.164855957031,0,1,faces,male,1,0,objects,P,big,VS,O,12,J03,46.392578125
0,0,0,24131,3.275390625,0.205078125,9,0,1,9,15,609.984130859375,910.378845214844,0,1,faces,female,1,0,objects,P,big,VS,O,12,J03,46.392578125
0,0,0,24134,3.8125,0.205078125,10,0,11,62,18,1161.15600585938,816.744812011719,0,1,objects,small,1,0,objects,P,big,VS,O,12,J03,46.392578125
1,1,0,24150,0.294921875,0.21484375,1,1,10,42,1,955.105834960938,603.713256835938,0,1,objects,big,1,0,faces,P,female,VS,F,13,J03,50.591796875
0,1,1,24151,0.5625,0.17578125,2,1,14,54,2,1052.50549316406,901.221008300781,0,1,faces,male,1,0,faces,P,female,VS,F,13,J03,50.591796875
0,1,0,24153,0.921875,0.189453125,3,1,4,17,4,634.731506347656,836.523376464844,0,1,faces,male,1,0,faces,P,female,VS,F,13,J03,50.591796875
0,1,0,24157,1.62890625,0.14453125,4,1,2,14,8,663.628173828125,540.521423339844,0,1,faces,male,1,0,faces,P,female,VS,F,13,J03,50.591796875
0,1,1,24158,1.822265625,0.232421875,5,0,1,3,9,528.053161621094,310.867980957031,0,1,faces,female,1,0,faces,P,female,VS,F,13,J03,50.591796875
0,1,0,24160,2.1953125,0.158203125,6,0,11,47,11,1016.09112548828,279.520477294922,0,1,objects,big,1,0,faces,P,female,VS,F,13,J03,50.591796875
0,1,0,24161,2.38671875,0.34375,7,0,12,48,12,1054.84802246094,333.567626953125,0,1,faces,female,1,0,faces,P,female,VS,F,13,J03,50.591796875
0,1,1,24162,2.76953125,0.1875,8,0,15,60,13,1130.39770507812,631.01171875,1,0,NaN,NaN,1,0,faces,P,female,VS,F,13,J03,50.591796875
0,1,1,24164,3.103515625,0.15234375,9,0,5,21,15,756.367797851562,294.280395507812,0,1,faces,male,1,0,faces,P,female,VS,F,13,J03,50.591796875
0,1,0,24166,3.517578125,0.3125,10,0,8,32,17,844.36962890625,525.090942382812,0,1,faces,male,1,0,faces,P,female,VS,F,13,J03,50.591796875
2,1,0,24167,3.859375,0.1953125,11,0,10,42,18,976.815673828125,645.476257324219,0,1,objects,big,1,0,faces,P,female,VS,F,13,J03,50.591796875
0,1,0,24179,0.302734375,0.1953125,1,1,2,6,1,555.22412109375,635.78466796875,0,1,objects,big,0,1,faces,A,female,VS,I,14,J03,54.791015625
1,1,0,24180,0.556640625,0.140625,2,1,6,40,2,995.917236328125,454.263305664062,0,1,faces,female,0,1,faces,A,female,VS,I,14,J03,54.791015625
0,1,0,24181,0.7109375,0.275390625,3,1,9,49,3,1037.30346679688,441.311584472656,0,1,faces,female,0,1,faces,A,female,VS,I,14,J03,54.791015625
0,1,0,24182,1.013671875,0.189453125,4,1,11,59,4,1166.95581054688,571.370056152344,0,1,faces,female,0,1,faces,A,female,VS,I,14,J03,54.791015625
0,1,0,24184,1.375,0.169921875,5,0,15,80,6,1344.1552734375,822.573425292969,0,1,faces,female,0,1,faces,A,female,VS,I,14,J03,54.791015625
0,1,0,24186,1.693359375,0.15625,6,0,7,43,8,938.258972167969,738.515930175781,0,1,faces,female,0,1,faces,A,female,VS,I,14,J03,54.791015625
0,1,0,24188,2.109375,0.232421875,7,0,12,62,10,1133.81201171875,857.105651855469,0,1,faces,male,0,1,faces,A,female,VS,I,14,J03,54.791015625
0,1,0,24190,2.544921875,0.162109375,8,0,13,66,12,1247.20458984375,318.928009033203,0,1,faces,female,0,1,faces,A,female,VS,I,14,J03,54.791015625
0,1,0,24191,2.744140625,0.1484375,9,0,8,48,13,1074.34411621094,322.663970947266,0,1,faces,male,0,1,faces,A,female,VS,I,14,J03,54.791015625
0,1,0,24194,3.19921875,0.412109375,10,0,1,2,16,532.83642578125,221.025207519531,0,1,objects,big,0,1,faces,A,female,VS,I,14,J03,54.791015625
0,1,0,24195,3.638671875,0.201171875,11,0,5,20,17,749.805236816406,223.175689697266,0,1,faces,male,0,1,faces,A,female,VS,I,14,J03,54.791015625
2,1,0,24196,3.88671875,0.126953125,12,0,6,40,18,977.347717285156,409.140502929688,0,1,faces,female,0,1,faces,A,female,VS,I,14,J03,54.791015625
1,1,0,24214,0.20703125,0.16796875,1,1,5,32,1,868.672302246094,558.194274902344,0,1,faces,female,0,1,objects,A,small,VS,O,15,J03,58.990234375
0,1,0,24223,1.55859375,0.1015625,2,1,1,4,10,581.326538085938,464.288238525391,0,1,objects,small,0,1,objects,A,small,VS,O,15,J03,58.990234375
2,1,0,24224,1.69921875,0.177734375,3,1,5,32,11,829.565246582031,541.148376464844,0,1,faces,female,0,1,objects,A,small,VS,O,15,J03,58.990234375
0,1,0,24225,1.91796875,0.109375,4,1,8,50,12,1040.38684082031,536.934753417969,0,1,objects,big,0,1,objects,A,small,VS,O,15,J03,58.990234375
0,1,0,24226,2.068359375,0.126953125,5,0,12,68,13,1250.88696289062,571.2958984375,0,1,objects,big,0,1,objects,A,small,VS,O,15,J03,58.990234375
0,1,0,24227,2.26171875,0.21484375,6,0,13,71,14,1267.9169921875,801.609313964844,0,1,faces,female,0,1,objects,A,small,VS,O,15,J03,58.990234375
0,1,0,24230,2.94140625,0.111328125,7,0,3,23,17,765.159729003906,511.695709228516,0,1,faces,male,0,1,objects,A,small,VS,O,15,J03,58.990234375
0,1,0,24232,3.248046875,0.1640625,8,0,4,28,19,847.746398925781,147.205917358398,0,1,faces,male,0,1,objects,A,small,VS,O,15,J03,58.990234375
3,1,0,24234,3.689453125,0.814453125,9,0,5,32,21,891.847717285156,493.426910400391,0,1,faces,female,0,1,objects,A,small,VS,O,15,J03,58.990234375
0,1,0,24248,0.330078125,0.197265625,1,1,5,31,3,843.259765625,414.619537353516,0,1,faces,male,1,1,faces,P,male,VS,F,16,J03,63.189453125
0,1,0,24249,0.576171875,0.193359375,2,1,7,42,4,999.709777832031,649.324035644531,0,1,faces,male,1,1,faces,P,male,VS,F,16,J03,63.189453125
0,1,0,24250,0.8203125,0.216796875,3,1,11,60,5,1163.43029785156,650.491333007812,0,1,faces,female,1,1,faces,P,male,VS,F,16,J03,63.189453125
1,0,1,24252,1.27734375,0.404296875,4,1,15,80,7,1339.6875,831.436340332031,1,0,NaN,NaN,1,1,faces,P,male,VS,F,16,J03,63.189453125
0,0,0,24254,2.27734375,0.3203125,5,0,1,7,9,549.745788574219,723.028564453125,0,1,faces,male,1,1,faces,P,male,VS,F,16,J03,63.189453125
2,0,1,24258,3.080078125,0.23046875,6,0,15,80,13,1342.2099609375,826.880981445312,1,0,NaN,NaN,1,1,faces,P,male,VS,F,16,J03,63.189453125
0,0,0,24260,3.986328125,0.26953125,7,0,8,44,15,935.27490234375,840.173889160156,0,1,faces,female,1,1,faces,P,male,VS,F,16,J03,63.189453125
0,1,0,24275,0.212890625,0.1875,1,1,12,70,1,1210.64025878906,721.743713378906,0,1,objects,small,1,1,faces,P,male,VS,I,17,J03,67.388671875
0,1,1,24276,0.42578125,0.21484375,2,1,10,53,2,1075.88549804688,825.617797851562,0,1,faces,female,1,1,faces,P,male,VS,I,17,J03,67.388671875
0,1,1,24278,0.85546875,0.21875,3,1,6,32,4,851.24951171875,522.164184570312,0,1,faces,male,1,1,faces,P,male,VS,I,17,J03,67.388671875
0,1,0,24280,1.25390625,0.17578125,4,1,7,33,6,850.393432617188,642.127502441406,0,1,faces,female,1,1,faces,P,male,VS,I,17,J03,67.388671875
0,1,1,24281,1.455078125,0.220703125,5,0,9,50,7,1069.11804199219,554.011779785156,0,1,faces,male,1,1,faces,P,male,VS,I,17,J03,67.388671875
1,0,0,24283,1.861328125,0.251953125,6,0,4,27,9,729.3505859375,920.152404785156,1,0,NaN,NaN,1,1,faces,P,male,VS,I,17,J03,67.388671875
0,0,0,24284,2.138671875,0.1171875,7,0,1,8,10,568.244018554688,863.107116699219,0,1,faces,male,1,1,faces,P,male,VS,I,17,J03,67.388671875
2,0,1,24285,2.294921875,0.1484375,8,0,4,27,11,745.938781738281,926.007934570312,1,0,NaN,NaN,1,1,faces,P,male,VS,I,17,J03,67.388671875
0,0,1,24287,2.90234375,0.212890625,9,0,15,81,13,1312.73681640625,899.336608886719,0,1,faces,female,1,1,faces,P,male,VS,I,17,J03,67.388671875
3,0,0,24290,3.466796875,0.455078125,10,0,4,27,16,725.928527832031,917.203430175781,1,0,NaN,NaN,1,1,faces,P,male,VS,I,17,J03,67.388671875
1,1,1,24303,0.232421875,0.21484375,1,1,9,42,1,919.46533203125,622.018615722656,0,1,objects,small,0,1,faces,A,male,EX,F,18,J03,71.587890625
0,1,0,24305,0.70703125,0.375,2,1,8,32,3,829.634460449219,555.226501464844,0,1,faces,female,0,1,faces,A,male,EX,F,18,J03,71.587890625
0,1,0,24306,1.1328125,0.158203125,3,1,2,7,4,580.336608886719,734.851135253906,0,1,faces,male,0,1,faces,A,male,EX,F,18,J03,71.587890625
0,1,1,24307,1.314453125,0.173828125,4,1,6,16,5,627.474853515625,733.342590332031,0,1,faces,male,0,1,faces,A,male,EX,F,18,J03,71.587890625
2,1,0,24309,1.712890625,0.361328125,5,0,9,42,7,940.210815429688,633.345153808594,0,1,objects,small,0,1,faces,A,male,EX,F,18,J03,71.587890625
0,1,0,24310,2.12890625,0.14453125,6,0,13,70,8,1303.32055664062,734.442749023438,0,1,faces,male,0,1,faces,A,male,EX,F,18,J03,71.587890625
0,1,0,24311,2.298828125,0.21875,7,0,15,79,9,1350.11499023438,726.751770019531,0,1,faces,female,0,1,faces,A,male,EX,F,18,J03,71.587890625
0,1,1,24312,2.53515625,0.14453125,8,0,12,61,10,1184.40856933594,714.433776855469,0,1,faces,male,0,1,faces,A,male,EX,F,18,J03,71.587890625
0,1,1,24314,2.91796875,0.126953125,9,0,10,46,12,1061.61865234375,149.631637573242,0,1,faces,male,0,1,faces,A,male,EX,F,18,J03,71.587890625
1,1,0,24316,3.396484375,0.1171875,10,0,3,11,14,617.103820800781,269.156127929688,0,1,faces,female,0,1,faces,A,male,EX,F,18,J03,71.587890625
0,1,0,24317,3.541015625,0.142578125,11,0,1,3,15,527.2822265625,303.261810302734,0,1,objects,small,0,1,faces,A,male,EX,F,18,J03,71.587890625
2,1,0,24319,3.935546875,0.294921875,12,0,3,11,17,619.754333496094,201.089126586914,0,1,faces,female,0,1,faces,A,male,EX,F,18,J03,71.587890625
0,1,0,24335,0.408203125,0.138671875,1,1,14,79,2,1350.20385742188,735.84765625,0,1,objects,big,0,1,faces,A,male,VS,F,19,J03,75.787109375
0,1,0,24336,0.576171875,0.181640625,2,1,15,80,3,1361.767578125,830.692138671875,0,1,faces,female,0,1,faces,A,male,VS,F,19,J03,75.787109375
0,1,0,24337,0.79296875,0.205078125,3,1,13,78,4,1359.32202148438,656.595153808594,0,1,faces,male,0,1,faces,A,male,VS,F,19,J03,75.787109375
0,1,0,24339,1.177734375,0.140625,4,1,11,74,6,1328.47290039062,245.06103515625,0,1,faces,female,0,1,faces,A,male,VS,F,19,J03,75.787109375
0,1,1,24340,1.349609375,0.103515625,5,0,10,64,7,1249.796875,135.630615234375,0,1,faces,male,0,1,faces,A,male,VS,F,19,J03,75.787109375
0,1,0,24343,1.8203125,0.111328125,6,0,5,29,10,837.349670410156,232.834777832031,0,1,faces,female,0,1,faces,A,male,VS,F,19,J03,75.787109375
0,1,1,24344,1.962890625,0.15234375,7,0,4,19,11,740.903381347656,131.012313842773,0,1,faces,male,0,1,faces,A,male,VS,F,19,J03,75.787109375
0,1,0,24346,2.302734375,0.185546875,8,0,3,12,13,612.490112304688,300.717254638672,0,1,faces,female,0,1,faces,A,male,VS,F,19,J03,75.787109375
0,1,0,24347,2.5234375,0.275390625,9,0,1,2,14,510.667541503906,217.751235961914,0,1,faces,male,0,1,faces,A,male,VS,F,19,J03,75.787109375
0,1,0,24350,3.279296875,0.20703125,10,0,2,7,17,535.133666992188,750.060302734375,0,1,objects,big,0,1,faces,A,male,VS,F,19,J03,75.787109375
0,1,0,24352,3.69921875,0.197265625,11,0,7,58,19,1147.95788574219,412.283142089844,0,1,faces,male,0,1,faces,A,male,VS,F,19,J03,75.787109375
0,1,0,24369,0.384765625,0.140625,1,1,11,42,2,930.998474121094,618.027465820312,0,1,objects,big,0,1,faces,A,female,EX,F,20,J03,79.986328125
0,1,0,24370,0.5546875,0.240234375,2,1,7,32,3,827.761047363281,548.548522949219,0,1,faces,female,0,1,faces,A,female,EX,F,20,J03,79.986328125
0,1,0,24371,0.837890625,0.15625,3,1,4,20,4,722.658020019531,226.753173828125,0,1,faces,female,0,1,faces,A,female,EX,F,20,J03,79.986328125
0,1,1,24373,1.16015625,0.19921875,4,1,8,37,6,916.062133789062,138.539352416992,0,1,faces,male,0,1,faces,A,female,EX,F,20,J03,79.986328125
0,1,1,24375,1.5625,0.162109375,5,0,12,64,8,1264.458984375,111.676048278809,0,1,faces,female,0,1,faces,A,female,EX,F,20,J03,79.986328125
0,1,0,24377,1.931640625,0.283203125,6,0,15,75,10,1352.66955566406,325.405395507812,0,1,faces,male,0,1,faces,A,female,EX,F,20,J03,79.986328125
0,1,1,24378,2.27734375,0.146484375,7,0,14,71,11,1288.85754394531,802.788330078125,0,1,objects,small,0,1,faces,A,female,EX,F,20,J03,79.986328125
0,1,1,24380,2.775390625,0.11328125,8,0,2,8,13,591.069641113281,816.314025878906,0,1,faces,female,0,1,faces,A,female,EX,F,20,J03,79.986328125
0,1,0,24382,3.830078125,0.26171875,9,0,5,25,15,731.85302734375,740.35009765625,0,1,objects,small,0,1,faces,A,female,EX,F,20,J03,79.986328125
0,1,0,24398,0.19921875,0.138671875,1,1,6,40,2,982.414184570312,457.433868408203,0,1,objects,big,0,1,faces,A,female,VS,F,21,J03,84.185546875
1,1,0,24399,0.37109375,0.1875,2,1,10,51,3,1101.34851074219,639.615661621094,0,1,faces,female,0,1,faces,A,female,VS,F,21,J03,84.185546875
0,1,0,24400,0.583984375,0.12890625,3,1,13,60,4,1176.50512695312,647.160888671875,0,1,faces,male,0,1,faces,A,female,VS,F,21,J03,84.185546875
0,1,0,24401,0.736328125,0.17578125,4,1,15,79,5,1373.85021972656,727.677062988281,0,1,objects,big,0,1,faces,A,female,VS,F,21,J03,84.185546875
0,1,0,24403,1.0859375,0.16015625,5,0,12,55,7,1168.92590332031,136.280426025391,0,1,objects,small,0,1,faces,A,female,VS,F,21,J03,84.185546875
1,1,0,24405,1.431640625,0.138671875,6,0,8,47,9,1036.00646972656,231.468643188477,0,1,faces,male,0,1,faces,A,female,VS,F,21,J03,84.185546875
0,1,0,24407,1.845703125,0.138671875,7,0,11,53,11,1071.52221679688,831.995788574219,0,1,faces,female,0,1,faces,A,female,VS,F,21,J03,84.185546875
0,1,0,24408,2.00390625,0.224609375,8,0,5,35,12,845.270690917969,847.037902832031,0,1,objects,small,0,1,faces,A,female,VS,F,21,J03,84.185546875
0,1,0,24409,2.265625,0.115234375,9,0,1,18,13,648.285705566406,924.655944824219,0,1,faces,female,0,1,faces,A,female,VS,F,21,J03,84.185546875
0,1,1,24411,2.58984375,0.138671875,10,0,3,31,15,909.967346191406,470.360626220703,0,1,faces,male,0,1,faces,A,female,VS,F,21,J03,84.185546875
2,1,0,24413,2.8828125,0.203125,11,0,10,51,17,1068.98034667969,637.036743164062,0,1,faces,female,0,1,faces,A,female,VS,F,21,J03,84.185546875
0,1,1,24414,3.2265625,0.115234375,12,0,2,19,18,780.248229980469,116.475975036621,0,1,faces,female,0,1,faces,A,female,VS,F,21,J03,84.185546875
0,1,0,24417,3.732421875,0.181640625,13,0,7,46,21,1086.05773925781,158.008590698242,0,1,faces,female,0,1,faces,A,female,VS,F,21,J03,84.185546875
2,1,0,24418,3.9375,0.279296875,14,0,8,47,22,1055.85571289062,229.683944702148,0,1,faces,male,0,1,faces,A,female,VS,F,21,J03,84.185546875
0,1,0,24431,0.25390625,0.166015625,1,1,3,32,1,848.653930664062,554.364135742188,0,1,faces,male,1,1,objects,P,small,VS,O,22,J03,88.384765625
0,1,0,24432,0.478515625,0.185546875,2,1,9,70,2,1302.43737792969,747.511413574219,0,1,faces,female,1,1,objects,P,small,VS,O,22,J03,88.384765625
0,1,1,24435,0.859375,0.197265625,3,1,15,80,5,1357.47729492188,817.702758789062,1,0,NaN,NaN,1,1,objects,P,small,VS,O,22,J03,88.384765625
0,0,0,24440,3.884765625,0.142578125,4,1,13,76,10,1330.29296875,410.977966308594,0,1,faces,female,1,1,objects,P,small,VS,O,22,J03,88.384765625
0,1,0,24463,0.46875,0.126953125,1,1,6,40,3,963.9560546875,442.620941162109,0,1,faces,female,1,1,faces,P,male,VS,I,23,J03,92.583984375
0,1,1,24464,0.62109375,0.130859375,2,1,10,57,4,1150.63696289062,377.599609375,0,1,faces,male,1,1,faces,P,male,VS,I,23,J03,92.583984375
0,1,0,24466,0.94140625,0.14453125,3,1,14,77,6,1353.30419921875,521.851379394531,0,1,faces,male,1,1,faces,P,male,VS,I,23,J03,92.583984375
0,1,0,24469,1.44921875,0.212890625,4,1,7,44,9,951.065673828125,857.381408691406,0,1,faces,female,1,1,faces,P,male,VS,I,23,J03,92.583984375
1,1,0,24470,1.693359375,0.166015625,5,0,12,62,10,1163.29711914062,839.469970703125,0,1,faces,female,1,1,faces,P,male,VS,I,23,J03,92.583984375
0,1,0,24471,1.8828125,0.25390625,6,0,8,45,11,946.9609375,942.634399414062,0,1,faces,female,1,1,faces,P,male,VS,I,23,J03,92.583984375
2,1,1,24472,2.171875,0.171875,7,0,12,62,12,1162.43957519531,830.448608398438,0,1,faces,female,1,1,faces,P,male,VS,I,23,J03,92.583984375
0,1,0,24475,2.865234375,0.16015625,8,0,1,3,15,539.82958984375,377.111053466797,0,1,objects,big,1,1,faces,P,male,VS,I,23,J03,92.583984375
1,1,0,24477,3.185546875,0.154296875,9,0,3,14,17,639.474243164062,545.054931640625,1,0,NaN,NaN,1,1,faces,P,male,VS,I,23,J03,92.583984375
2,0,1,24479,3.560546875,0.208984375,10,0,3,14,19,631.508605957031,547.507873535156,1,0,NaN,NaN,1,1,faces,P,male,VS,I,23,J03,92.583984375
0,1,0,24489,0.232421875,0.154296875,1,1,4,42,1,955.494750976562,661.345275878906,0,1,objects,small,0,1,objects,A,small,EX,O,24,J03,96.783203125
0,1,1,24490,0.41796875,0.142578125,2,1,11,60,2,1122.66882324219,644.438598632812,0,1,faces,female,0,1,objects,A,small,EX,O,24,J03,96.783203125
0,1,0,24492,0.783203125,0.328125,3,1,7,52,4,1056.11743164062,759.234924316406,0,1,faces,male,0,1,objects,A,small,EX,O,24,J03,96.783203125
0,1,1,24493,1.15234375,0.146484375,4,1,2,7,5,551.507446289062,733.894836425781,0,1,faces,male,0,1,objects,A,small,EX,O,24,J03,96.783203125
0,1,1,24495,1.56640625,0.14453125,5,0,1,1,7,518.891418457031,92.9561233520508,0,1,faces,female,0,1,objects,A,small,EX,O,24,J03,96.783203125
0,1,1,24497,2.1875,0.146484375,6,0,13,65,9,1222.79858398438,240.714797973633,0,1,faces,female,0,1,objects,A,small,EX,O,24,J03,96.783203125
0,1,0,24499,2.51953125,0.3359375,7,0,10,57,11,1165.42687988281,327.711120605469,0,1,faces,female,0,1,objects,A,small,EX,O,24,J03,96.783203125
0,1,0,24500,2.8828125,0.31640625,8,0,14,67,12,1262.52917480469,450.845428466797,0,1,faces,female,0,1,objects,A,small,EX,O,24,J03,96.783203125
0,1,0,24501,3.255859375,0.291015625,9,0,15,80,13,1359.92517089844,826.601623535156,0,1,faces,female,0,1,objects,A,small,EX,O,24,J03,96.783203125
0,1,0,24503,3.748046875,0.2265625,10,0,12,63,15,1143.12243652344,922.10888671875,0,1,objects,small,0,1,objects,A,small,EX,O,24,J03,96.783203125
0,1,0,24504,3.99609375,0.263671875,11,0,5,45,16,941.016906738281,929.504089355469,0,1,faces,male,0,1,objects,A,small,EX,O,24,J03,96.783203125
0,1,0,24521,0.23828125,0.1328125,1,1,7,36,1,816.130065917969,909.242614746094,0,1,faces,female,1,1,faces,P,male,VS,F,25,J03,100.982421875
0,1,1,24522,0.4296875,0.130859375,2,1,12,61,2,1195.28967285156,773.846862792969,0,1,faces,female,1,1,faces,P,male,VS,F,25,J03,100.982421875
0,1,0,24525,0.95703125,0.232421875,3,1,8,39,5,922.806213378906,306.404113769531,0,1,faces,male,1,1,faces,P,male,VS,F,25,J03,100.982421875
1,1,0,24526,1.22265625,0.1484375,4,1,5,28,6,830.019104003906,179.716461181641,0,1,faces,male,1,1,faces,P,male,VS,F,25,J03,100.982421875
2,1,0,24528,1.5546875,0.146484375,5,0,5,28,8,821.285522460938,161.434509277344,0,1,faces,male,1,1,faces,P,male,VS,F,25,J03,100.982421875
0,1,0,24532,2.333984375,0.1171875,6,0,14,79,12,1334.47033691406,763.565063476562,0,1,objects,big,1,1,faces,P,male,VS,F,25,J03,100.982421875
0,0,1,24533,2.486328125,0.345703125,7,0,13,77,13,1335.03588867188,516.473937988281,1,0,NaN,NaN,1,1,faces,P,male,VS,F,25,J03,100.982421875
1,1,0,24547,0.416015625,0.109375,1,1,9,42,2,914.344787597656,595.101928710938,0,1,faces,male,0,1,faces,A,female,EX,I,26,J03,105.181640625
0,1,0,24550,0.876953125,0.306640625,2,1,7,28,5,842.373107910156,94.3930206298828,0,1,faces,female,0,1,faces,A,female,EX,I,26,J03,105.181640625
0,1,0,24552,1.66796875,0.140625,3,1,10,50,7,1011.89215087891,570.615783691406,0,1,objects,small,0,1,faces,A,female,EX,I,26,J03,105.181640625
2,1,0,24553,1.84765625,0.18359375,4,1,9,42,8,916.563659667969,611.133911132812,0,1,faces,male,0,1,faces,A,female,EX,I,26,J03,105.181640625
0,1,0,24554,2.056640625,0.255859375,5,0,8,34,9,811.520874023438,692.252868652344,0,1,faces,female,0,1,faces,A,female,EX,I,26,J03,105.181640625
1,1,0,24555,2.34765625,0.16015625,6,0,13,62,10,1159.70043945312,847.479919433594,0,1,faces,female,0,1,faces,A,female,EX,I,26,J03,105.181640625
0,1,1,24556,2.521484375,0.158203125,7,0,11,54,11,1062.07348632812,909.262817382812,0,1,faces,female,0,1,faces,A,female,EX,I,26,J03,105.181640625
0,1,0,24558,2.90625,0.25,8,0,3,9,13,578.896789550781,911.358703613281,0,1,faces,female,0,1,faces,A,female,EX,I,26,J03,105.181640625
0,1,0,24560,3.56640625,0.189453125,9,0,14,63,15,1138.37744140625,892.831848144531,0,1,faces,male,0,1,faces,A,female,EX,I,26,J03,105.181640625
2,1,0,24561,3.77734375,0.255859375,10,0,13,62,16,1148.93920898438,827.310913085938,0,1,faces,female,0,1,faces,A,female,EX,I,26,J03,105.181640625
0,1,0,24578,0.64453125,0.13671875,1,1,12,53,4,1024.03247070312,871.791076660156,0,1,faces,male,0,1,faces,A,male,VS,I,27,J03,109.380859375
1,1,1,24581,1.248046875,0.1328125,2,1,10,49,7,1011.126953125,433.251708984375,0,1,faces,male,0,1,faces,A,male,VS,I,27,J03,109.380859375
0,1,0,24583,1.640625,0.158203125,3,1,8,46,9,1059.11047363281,119.393157958984,0,1,faces,female,0,1,faces,A,male,VS,I,27,J03,109.380859375
0,1,0,24587,2.46875,0.1328125,4,1,7,42,13,997.390869140625,594.944152832031,0,1,objects,small,0,1,faces,A,male,VS,I,27,J03,109.380859375
0,1,0,24588,2.615234375,0.173828125,5,0,11,51,14,1038.05456542969,605.773986816406,0,1,faces,male,0,1,faces,A,male,VS,I,27,J03,109.380859375
2,1,0,24589,2.8203125,0.275390625,6,0,10,49,15,1043.4443359375,416.573089599609,0,1,faces,male,0,1,faces,A,male,VS,I,27,J03,109.380859375
0,1,0,24606,0.77734375,0.119140625,1,1,1,1,4,527.92578125,145.878433227539,0,1,faces,female,1,1,faces,P,female,VS,F,28,J03,113.580078125
0,1,0,24610,1.4609375,0.111328125,2,1,10,67,8,1267.24816894531,414.623565673828,0,1,faces,male,1,1,faces,P,female,VS,F,28,J03,113.580078125
0,1,0,24611,1.6171875,0.107421875,3,1,11,69,9,1265.32202148438,649.548034667969,0,1,objects,big,1,1,faces,P,female,VS,F,28,J03,113.580078125
0,1,0,24612,1.751953125,0.15234375,4,1,12,70,10,1280.283203125,763.922302246094,0,1,faces,male,1,1,faces,P,female,VS,F,28,J03,113.580078125
0,0,1,24613,1.93359375,0.33984375,5,0,13,71,11,1250.31481933594,810.424682617188,1,0,NaN,NaN,1,1,faces,P,female,VS,F,28,J03,113.580078125
0,0,0,24616,3.990234375,0.310546875,6,0,15,79,14,1370.01806640625,729.360412597656,0,1,objects,big,1,1,faces,P,female,VS,F,28,J03,113.580078125
0,1,0,24633,0.20703125,0.19921875,1,1,7,31,1,865.828735351562,483.780303955078,0,1,objects,big,1,1,objects,P,big,VS,O,29,J03,117.779296875
0,1,0,24635,0.552734375,0.201171875,2,1,15,79,3,1351.33666992188,713.357788085938,0,1,objects,small,1,1,objects,P,big,VS,O,29,J03,117.779296875
0,1,0,24636,0.81640625,0.193359375,3,1,11,37,4,911.520751953125,102.433120727539,0,1,faces,male,1,1,objects,P,big,VS,O,29,J03,117.779296875
0,1,0,24639,1.380859375,0.1953125,4,1,8,32,7,837.512023925781,528.96435546875,0,1,faces,female,1,1,objects,P,big,VS,O,29,J03,117.779296875
1,1,0,24640,1.59375,0.185546875,5,0,9,34,8,818.198364257812,762.161499023438,0,1,faces,male,1,1,objects,P,big,VS,O,29,J03,117.779296875
0,1,0,24642,1.970703125,0.154296875,6,0,13,44,10,941.098083496094,801.911315917969,0,1,faces,male,1,1,objects,P,big,VS,O,29,J03,117.779296875
2,1,0,24647,3.00390625,0.21875,7,0,9,34,15,819.068359375,690.760131835938,0,1,faces,male,1,1,objects,P,big,VS,O,29,J03,117.779296875
0,0,0,24651,3.8046875,0.591796875,8,0,6,29,19,814.198486328125,195.042831420898,1,0,NaN,NaN,1,1,objects,P,big,VS,O,29,J03,117.779296875
0,1,0,24667,0.21875,0.138671875,1,1,6,39,1,989.113220214844,330.546234130859,0,1,objects,small,0,1,faces,A,male,VS,F,30,J03,121.978515625
0,1,0,24668,0.384765625,0.201171875,2,1,8,48,2,1040.08605957031,320.849273681641,0,1,faces,male,0,1,faces,A,male,VS,F,30,J03,121.978515625
0,1,0,24670,0.861328125,0.107421875,3,1,12,69,4,1230.740234375,656.988830566406,0,1,objects,big,0,1,faces,A,male,VS,F,30,J03,121.978515625
0,1,0,24671,0.998046875,0.2578125,4,1,15,78,5,1345.86450195312,643.239013671875,0,1,faces,male,0,1,faces,A,male,VS,F,30,J03,121.978515625
0,1,1,24672,1.306640625,0.173828125,5,0,9,54,6,1041.39794921875,916.637756347656,0,1,faces,female,0,1,faces,A,male,VS,F,30,J03,121.978515625
0,1,0,24675,1.86328125,0.18359375,6,0,5,23,9,730.829711914062,522.649230957031,0,1,faces,female,0,1,faces,A,male,VS,F,30,J03,121.978515625
0,1,0,24679,2.6171875,0.130859375,7,0,10,55,13,1118.53137207031,189.712509155273,0,1,objects,big,0,1,faces,A,male,VS,F,30,J03,121.978515625
0,1,0,24702,0.9921875,0.16015625,1,1,6,35,4,812.396179199219,818.994262695312,0,1,faces,female,0,1,faces,P,female,VS,I,31,J03,126.177734375
0,1,0,24703,1.18359375,0.169921875,2,1,13,62,5,1148.90295410156,839.119506835938,0,1,faces,male,0,1,faces,P,female,VS,I,31,J03,126.177734375
1,1,0,24704,1.39453125,0.162109375,3,1,5,33,6,844.9453125,609.321594238281,0,1,faces,male,0,1,faces,P,female,VS,I,31,J03,126.177734375
2,1,1,24706,1.857421875,0.119140625,4,1,5,33,8,841.212341308594,652.504089355469,0,1,faces,male,0,1,faces,P,female,VS,I,31,J03,126.177734375
0,1,0,24729,0.265625,0.140625,1,1,6,20,2,788.700805664062,198.357604980469,0,1,objects,small,0,1,faces,A,female,VS,I,32,J03,130.376953125
0,1,1,24730,0.455078125,0.24609375,2,1,3,14,3,677.492004394531,490.622436523438,0,1,objects,big,0,1,faces,A,female,VS,I,32,J03,130.376953125
0,1,0,24733,1.001953125,0.130859375,3,1,5,16,6,686.814025878906,786.061889648438,0,1,faces,male,0,1,faces,A,female,VS,I,32,J03,130.376953125
0,1,0,24734,1.166015625,0.275390625,4,1,2,7,7,588.115966796875,712.173583984375,0,1,faces,female,0,1,faces,A,female,VS,I,32,J03,130.376953125
1,1,0,24736,1.603515625,0.14453125,5,0,9,27,9,721.165466308594,894.877014160156,0,1,faces,male,0,1,faces,A,female,VS,I,32,J03,130.376953125
0,1,0,24737,1.78515625,0.173828125,6,0,12,52,10,1067.58251953125,716.499450683594,0,1,faces,male,0,1,faces,A,female,VS,I,32,J03,130.376953125
0,1,1,24738,1.994140625,0.107421875,7,0,15,81,11,1370.05383300781,930.853698730469,0,1,faces,female,0,1,faces,A,female,VS,I,32,J03,130.376953125
2,1,0,24740,2.3046875,0.142578125,8,0,9,27,13,718.59765625,893.046325683594,0,1,faces,male,0,1,faces,A,female,VS,I,32,J03,130.376953125
0,1,0,24744,3.208984375,0.15625,9,0,13,64,17,1272.48181152344,120.397445678711,0,1,faces,female,0,1,faces,A,female,VS,I,32,J03,130.376953125
0,1,1,24746,3.560546875,0.201171875,10,0,14,67,19,1266.40148925781,391.221618652344,0,1,faces,female,0,1,faces,A,female,VS,I,32,J03,130.376953125
0,1,0,24748,3.935546875,0.349609375,11,0,10,29,21,815.844543457031,205.573913574219,0,1,objects,big,0,1,faces,A,female,VS,I,32,J03,130.376953125
0,1,0,24756,0.201171875,0.193359375,1,1,6,31,1,906.486572265625,408.866912841797,0,1,faces,male,0,0,faces,A,female,EX,F,33,J03,134.576171875
0,1,0,24758,0.806640625,0.16015625,2,1,13,55,3,1175.07836914062,136.028732299805,0,1,faces,female,0,0,faces,A,female,EX,F,33,J03,134.576171875
0,1,0,24766,3.865234375,0.142578125,3,1,3,25,11,796.177612304688,766.955261230469,0,1,objects,big,0,0,faces,A,female,EX,F,33,J03,134.576171875
0,1,0,24779,0.263671875,0.1796875,1,1,13,68,1,1218.77294921875,555.109619140625,0,1,faces,male,0,1,faces,A,male,EX,F,34,J03,138.775390625
1,1,0,24781,0.6015625,0.14453125,2,1,5,38,3,991.150756835938,270.460296630859,0,1,faces,male,0,1,faces,A,male,EX,F,34,J03,138.775390625
1,1,0,24782,0.767578125,0.154296875,3,1,6,39,4,941.442260742188,291.995269775391,0,1,faces,female,0,1,faces,A,male,EX,F,34,J03,138.775390625
0,1,0,24783,0.94921875,0.328125,4,1,8,48,5,1038.62524414062,298.832489013672,0,1,faces,male,0,1,faces,A,male,EX,F,34,J03,138.775390625
0,1,1,24786,1.748046875,0.185546875,5,0,11,57,8,1137.13549804688,294.171600341797,0,1,objects,small,0,1,faces,A,male,EX,F,34,J03,138.775390625
2,1,0,24789,2.95703125,0.125,6,0,5,38,11,921.498046875,249.094055175781,0,1,faces,male,0,1,faces,A,male,EX,F,34,J03,138.775390625
2,1,0,24790,3.09375,0.23828125,7,0,6,39,12,956.700744628906,298.353973388672,0,1,faces,female,0,1,faces,A,male,EX,F,34,J03,138.775390625
0,1,0,24791,3.404296875,0.130859375,8,0,2,17,13,647.1416015625,843.602905273438,0,1,objects,small,0,1,faces,A,male,EX,F,34,J03,138.775390625
0,1,0,24810,0.71875,0.181640625,1,1,6,47,4,1051.02697753906,194.021133422852,0,1,objects,small,0,1,objects,A,big,VS,O,35,J03,142.974609375
1,1,0,24812,1.146484375,0.23046875,2,1,10,62,6,1156.00622558594,832.224853515625,0,1,faces,male,0,1,objects,A,big,VS,O,35,J03,142.974609375
0,1,0,24814,1.55859375,0.181640625,3,1,4,29,8,882.257446289062,207.617294311523,0,1,objects,big,0,1,objects,A,big,VS,O,35,J03,142.974609375
0,1,0,24815,1.80859375,0.1796875,4,1,11,64,9,1267.31689453125,153.562973022461,0,1,objects,big,0,1,objects,A,big,VS,O,35,J03,142.974609375
0,1,0,24819,2.45703125,0.173828125,5,0,7,51,13,1047.39099121094,617.114624023438,0,1,faces,female,0,1,objects,A,big,VS,O,35,J03,142.974609375
2,1,1,24822,3.029296875,0.171875,6,0,10,62,16,1177.04675292969,826.383178710938,0,1,faces,male,0,1,objects,A,big,VS,O,35,J03,142.974609375
0,1,0,24836,0.5390625,0.34375,1,1,10,58,3,1140.11193847656,398.731231689453,0,1,objects,small,0,1,objects,A,small,EX,O,36,J03,147.173828125
0,1,0,24837,0.90625,0.208984375,2,1,14,76,4,1361.42785644531,395.876617431641,0,1,objects,big,0,1,objects,A,small,EX,O,36,J03,147.173828125
0,1,0,24838,1.150390625,0.140625,3,1,9,57,5,1176.9013671875,295.117309570312,0,1,faces,female,0,1,objects,A,small,EX,O,36,J03,147.173828125
0,1,1,24840,1.775390625,0.240234375,4,1,6,32,7,810.382202148438,493.552703857422,0,1,faces,male,0,1,objects,A,small,EX,O,36,J03,147.173828125
0,1,1,24843,2.55859375,0.177734375,5,0,11,62,10,1156.61413574219,812.092956542969,0,1,objects,small,0,1,objects,A,small,EX,O,36,J03,147.173828125
0,1,0,24868,0.544921875,0.166015625,1,1,14,76,3,1343.68359375,428.507354736328,0,1,faces,male,1,1,objects,P,small,VS,O,37,J03,151.373046875
0,1,0,24873,1.484375,0.12109375,2,1,5,13,8,616.570617675781,399.485382080078,0,1,objects,small,1,1,objects,P,small,VS,O,37,J03,151.373046875
1,1,0,24879,2.544921875,0.123046875,3,1,9,51,14,1047.40771484375,595.768371582031,1,0,NaN,NaN,1,1,objects,P,small,VS,O,37,J03,151.373046875
0,1,0,24880,2.705078125,0.197265625,4,1,11,56,15,1125.02990722656,227.289840698242,0,1,faces,female,1,1,objects,P,small,VS,O,37,J03,151.373046875
2,0,1,24882,3.1640625,0.701171875,5,0,9,51,17,1038.94702148438,614.235656738281,1,0,NaN,NaN,1,1,objects,P,small,VS,O,37,J03,151.373046875
0,1,1,24901,1.1484375,0.208984375,1,1,15,79,5,1390.63623046875,712.921997070312,0,1,faces,female,1,1,faces,P,male,VS,I,38,J03,155.572265625
0,1,0,24905,1.88671875,0.140625,2,1,10,46,9,1062.40283203125,91.9157180786133,1,0,NaN,NaN,1,1,faces,P,male,VS,I,38,J03,155.572265625
0,1,0,24908,3.169921875,0.271484375,3,1,7,34,12,827.952392578125,751.749267578125,0,1,faces,male,1,1,faces,P,male,VS,I,38,J03,155.572265625
1,1,0,24909,3.4765625,0.142578125,4,1,5,25,13,711.419799804688,722.948913574219,0,1,faces,female,1,1,faces,P,male,VS,I,38,J03,155.572265625
0,1,0,24910,3.642578125,0.212890625,5,0,9,42,14,921.804016113281,633.763610839844,0,1,faces,male,1,1,faces,P,male,VS,I,38,J03,155.572265625
2,1,0,24911,3.8828125,0.216796875,6,0,5,25,15,804.161315917969,724.873718261719,0,1,faces,female,1,1,faces,P,male,VS,I,38,J03,155.572265625
0,1,1,24930,0.26171875,0.1640625,1,1,15,80,1,1361.26916503906,811.630981445312,0,1,faces,female,0,1,faces,A,male,EX,I,39,J03,159.771484375
0,1,0,24934,1.400390625,0.13671875,2,1,4,21,5,788.58544921875,353.245788574219,0,1,faces,female,0,1,faces,A,male,EX,I,39,J03,159.771484375
1,1,0,24935,1.564453125,0.416015625,3,1,5,22,6,720.723693847656,408.267028808594,0,1,objects,small,0,1,faces,A,male,EX,I,39,J03,159.771484375
1,1,0,24936,2.009765625,0.40234375,4,1,9,32,7,840.725708007812,497.018341064453,0,1,objects,big,0,1,faces,A,male,EX,I,39,J03,159.771484375
0,1,1,24937,2.44921875,0.142578125,5,0,11,43,8,962.276977539062,692.253540039062,0,1,objects,big,0,1,faces,A,male,EX,I,39,J03,159.771484375
0,1,0,24939,2.884765625,0.4296875,6,0,3,17,10,709.0576171875,819.460388183594,0,1,objects,big,0,1,faces,A,male,EX,I,39,J03,159.771484375
2,1,0,24940,3.359375,0.15234375,7,0,5,22,11,770.567749023438,481.21533203125,0,1,objects,small,0,1,faces,A,male,EX,I,39,J03,159.771484375
2,1,0,24942,3.701171875,0.224609375,8,0,9,32,13,839.988952636719,505.696502685547,0,1,objects,big,0,1,faces,A,male,EX,I,39,J03,159.771484375
1,1,0,24958,0.36328125,0.150390625,1,1,13,60,2,1132.408203125,637.931884765625,0,1,objects,big,0,1,objects,A,small,VS,O,40,J03,163.970703125
0,1,0,24959,0.57421875,0.1875,2,1,7,26,3,741.051818847656,800.801330566406,0,1,faces,female,0,1,objects,A,small,VS,O,40,J03,163.970703125
0,1,0,24960,0.81640625,0.205078125,3,1,6,21,4,756.74658203125,303.549377441406,0,1,objects,big,0,1,objects,A,small,VS,O,40,J03,163.970703125
0,1,1,24961,1.078125,0.1953125,4,1,14,73,5,1341.10510253906,142.128082275391,0,1,faces,male,0,1,objects,A,small,VS,O,40,J03,163.970703125
1,1,0,24963,1.435546875,0.169921875,5,0,1,1,7,590.986022949219,122.260292053223,0,1,objects,small,0,1,objects,A,small,VS,O,40,J03,163.970703125
0,1,0,24966,1.9921875,0.15234375,6,0,4,17,10,631.52099609375,838.016540527344,0,1,faces,male,0,1,objects,A,small,VS,O,40,J03,163.970703125
0,1,0,24968,2.306640625,0.23046875,7,0,11,53,12,1021.16046142578,840.496704101562,0,1,faces,female,0,1,objects,A,small,VS,O,40,J03,163.970703125
0,1,0,24969,2.55859375,0.208984375,8,0,10,52,13,1025.07580566406,694.581420898438,0,1,faces,male,0,1,objects,A,small,VS,O,40,J03,163.970703125
2,1,0,24970,2.787109375,0.1640625,9,0,13,60,14,1152.39770507812,618.878051757812,0,1,objects,big,0,1,objects,A,small,VS,O,40,J03,163.970703125
0,1,0,24971,2.98828125,0.1328125,10,0,8,31,15,840.614440917969,406.145080566406,0,1,faces,female,0,1,objects,A,small,VS,O,40,J03,163.970703125
2,1,0,24973,3.291015625,0.13671875,11,0,1,1,17,587.777648925781,109.113906860352,0,1,objects,small,0,1,objects,A,small,VS,O,40,J03,163.970703125
0,1,0,24975,3.7890625,0.19140625,12,0,2,6,19,518.993408203125,592.219177246094,0,1,faces,female,0,1,objects,A,small,VS,O,40,J03,163.970703125
0,0,0,24998,0.3515625,0.236328125,1,1,7,30,2,864.071044921875,290.521301269531,1,0,NaN,NaN,1,0,faces,P,male,VS,I,41,J03,168.169921875
0,0,0,25006,2.224609375,0.140625,2,1,3,8,10,562.347900390625,859.584594726562,0,1,faces,female,1,0,faces,P,male,VS,I,41,J03,168.169921875
1,0,0,25008,2.544921875,0.173828125,3,1,10,54,12,1098.55737304688,917.476379394531,0,1,faces,male,1,0,faces,P,male,VS,I,41,J03,168.169921875
0,0,0,25009,2.779296875,0.1796875,4,1,11,63,13,1135.69885253906,935.397094726562,0,1,faces,female,1,0,faces,P,male,VS,I,41,J03,168.169921875
2,0,0,25010,2.97265625,0.2109375,5,0,10,54,14,1030.79516601562,932.867431640625,0,1,faces,male,1,0,faces,P,male,VS,I,41,J03,168.169921875
1,1,1,25031,0.341796875,0.208984375,1,1,12,68,2,1233.89294433594,576.784301757812,0,1,faces,female,0,1,faces,P,male,VS,F,42,J03,172.369140625
2,1,1,25033,0.677734375,0.2265625,2,1,12,68,4,1257.17431640625,520.327026367188,0,1,faces,female,0,1,faces,P,male,VS,F,42,J03,172.369140625
0,1,0,25039,3.888671875,0.171875,3,1,5,30,10,855.253967285156,304.647247314453,0,1,faces,female,0,1,faces,P,male,VS,F,42,J03,172.369140625
1,1,0,25052,0.69921875,0.103515625,1,1,14,80,3,1343.56604003906,890.342224121094,1,1,faces,female,1,0,faces,P,female,VS,F,43,J03,176.568359375
2,1,0,25054,0.978515625,0.2109375,2,1,14,80,5,1363.59533691406,844.580505371094,0,1,faces,female,1,0,faces,P,female,VS,F,43,J03,176.568359375
0,1,1,25055,1.216796875,0.123046875,3,1,15,81,6,1368.99230957031,919.074951171875,1,0,NaN,NaN,1,0,faces,P,female,VS,F,43,J03,176.568359375
3,1,1,25057,1.525390625,0.13671875,4,1,14,80,8,1354.91613769531,822.388793945312,0,1,faces,female,1,0,faces,P,female,VS,F,43,J03,176.568359375
0,1,0,25063,2.763671875,0.216796875,5,0,1,1,14,545.090026855469,95.5730056762695,0,1,faces,male,1,0,faces,P,female,VS,F,43,J03,176.568359375
0,1,0,25065,3.1875,0.1328125,6,0,11,67,16,1233.13708496094,446.489227294922,0,1,objects,big,1,0,faces,P,female,VS,F,43,J03,176.568359375
0,1,0,25066,3.34375,0.197265625,7,0,10,58,17,1167.56494140625,425.640747070312,0,1,faces,male,1,0,faces,P,female,VS,F,43,J03,176.568359375
0,1,0,25067,3.583984375,0.111328125,8,0,7,38,18,1009.8720703125,263.835174560547,0,1,objects,big,1,0,faces,P,female,VS,F,43,J03,176.568359375
0,1,0,25068,3.732421875,0.2109375,9,0,12,68,19,1280.91381835938,527.436462402344,0,1,faces,male,1,0,faces,P,female,VS,F,43,J03,176.568359375
0,1,0,25078,0.24609375,0.111328125,1,1,6,40,1,988.787475585938,489.043212890625,0,1,objects,big,1,1,objects,P,small,VS,O,44,J03,180.767578125
0,1,0,25079,0.37109375,0.171875,2,1,7,48,2,1027.87890625,389.427703857422,0,1,faces,male,1,1,objects,P,small,VS,O,44,J03,180.767578125
0,1,0,25082,0.876953125,0.123046875,3,1,11,62,5,1155.50256347656,851.783569335938,0,1,faces,male,1,1,objects,P,small,VS,O,44,J03,180.767578125
0,1,0,25083,1.033203125,0.134765625,4,1,8,49,6,1088.64709472656,423.871826171875,0,1,faces,male,1,1,objects,P,small,VS,O,44,J03,180.767578125
0,1,0,25084,1.1953125,0.109375,5,0,9,60,7,1157.09655761719,640.58642578125,0,1,objects,small,1,1,objects,P,small,VS,O,44,J03,180.767578125
1,0,1,25085,1.330078125,0.310546875,6,0,10,61,8,1141.55505371094,717.781372070312,1,0,NaN,NaN,1,1,objects,P,small,VS,O,44,J03,180.767578125
0,0,0,25087,2.095703125,0.15625,7,0,13,65,10,1234.88745117188,198.780334472656,0,1,faces,male,1,1,objects,P,small,VS,O,44,J03,180.767578125
2,0,1,25089,2.48828125,0.994140625,8,0,10,61,12,1137.26879882812,729.228637695312,1,0,NaN,NaN,1,1,objects,P,small,VS,O,44,J03,180.767578125
1,1,1,25104,0.224609375,0.21875,1,1,7,41,1,961.500854492188,497.588134765625,0,1,faces,female,0,1,faces,A,female,VS,F,45,J03,184.966796875
1,1,0,25106,0.6328125,0.1484375,2,1,5,21,3,742.376647949219,318.143341064453,0,1,faces,male,0,1,faces,A,female,VS,F,45,J03,184.966796875
0,1,0,25107,0.81640625,0.1484375,3,1,9,46,4,1058.89526367188,160.487869262695,0,1,faces,male,0,1,faces,A,female,VS,F,45,J03,184.966796875
0,1,0,25113,1.986328125,0.146484375,4,1,13,71,10,1212.86950683594,852.634399414062,0,1,faces,male,0,1,faces,A,female,VS,F,45,J03,184.966796875
0,1,0,25114,2.171875,0.1875,5,0,11,54,11,1020.30151367188,908.394226074219,0,1,faces,female,0,1,faces,A,female,VS,F,45,J03,184.966796875
2,1,0,25115,2.4140625,0.140625,6,0,7,41,12,930.019226074219,557.806762695312,0,1,faces,female,0,1,faces,A,female,VS,F,45,J03,184.966796875
0,1,0,25116,2.568359375,0.138671875,7,0,8,42,13,930.200134277344,610.992919921875,0,1,objects,small,0,1,faces,A,female,VS,F,45,J03,184.966796875
3,1,0,25118,2.884765625,0.248046875,8,0,7,41,15,952.267211914062,519.297607421875,0,1,faces,female,0,1,faces,A,female,VS,F,45,J03,184.966796875
0,1,0,25122,3.673828125,0.14453125,9,0,2,12,19,682.938903808594,337.192535400391,0,1,objects,big,0,1,faces,A,female,VS,F,45,J03,184.966796875
2,1,0,25123,3.830078125,0.1328125,10,0,5,21,20,714.346008300781,314.302825927734,0,1,faces,male,0,1,faces,A,female,VS,F,45,J03,184.966796875
0,1,0,25124,3.98828125,0.248046875,11,0,6,31,21,846.942993164062,409.725738525391,0,1,objects,big,0,1,faces,A,female,VS,F,45,J03,184.966796875
0,1,0,25139,0.37890625,0.13671875,1,1,11,57,2,1199.82019042969,322.344329833984,0,1,faces,female,1,1,objects,P,big,VS,O,46,J03,189.166015625
1,0,1,25143,1.02734375,0.525390625,2,1,13,67,6,1257.69177246094,394.986267089844,1,0,NaN,NaN,1,1,objects,P,big,VS,O,46,J03,189.166015625
2,0,1,25148,3.59765625,0.130859375,3,1,13,67,11,1289.841796875,410.865600585938,1,0,NaN,NaN,1,1,objects,P,big,VS,O,46,J03,189.166015625
1,1,0,25165,0.240234375,0.12890625,1,1,13,60,1,1201.599609375,662.581298828125,0,1,faces,male,1,1,faces,P,male,VS,I,47,J03,193.365234375
0,1,0,25166,0.3984375,0.15625,2,1,11,50,2,1093.84301757812,571.777038574219,0,1,objects,small,1,1,faces,P,male,VS,I,47,J03,193.365234375
0,1,1,25167,0.568359375,0.19921875,3,1,12,51,3,1043.20556640625,598.917785644531,0,1,faces,female,1,1,faces,P,male,VS,I,47,J03,193.365234375
2,1,0,25169,0.88671875,0.1875,4,1,13,60,5,1154.44470214844,625.055847167969,0,1,faces,male,1,1,faces,P,male,VS,I,47,J03,193.365234375
0,1,0,25170,1.130859375,0.19921875,5,0,7,21,6,758.000244140625,292.019134521484,0,1,objects,big,1,1,faces,P,male,VS,I,47,J03,193.365234375
0,1,1,25171,1.365234375,0.173828125,6,0,9,48,7,1018.18804931641,295.053100585938,0,1,faces,female,1,1,faces,P,male,VS,I,47,J03,193.365234375
0,1,0,25173,1.697265625,0.306640625,7,0,10,49,9,1046.95556640625,424.039154052734,0,1,faces,male,1,1,faces,P,male,VS,I,47,J03,193.365234375
0,0,0,25174,2.046875,1.09375,8,0,6,20,10,734.520080566406,196.997467041016,1,0,NaN,NaN,1,1,faces,P,male,VS,I,47,J03,193.365234375
0,1,1,25195,0.47265625,0.201171875,1,1,12,68,3,1258.68322753906,520.60107421875,0,1,faces,female,0,0,objects,A,big,EX,O,48,J03,197.564453125
0,1,1,25196,0.7109375,0.158203125,2,1,10,55,4,1187.53967285156,147.329238891602,0,1,objects,big,0,0,objects,A,big,EX,O,48,J03,197.564453125
0,1,0,25204,2.55078125,0.22265625,3,1,7,39,12,934.661437988281,292.857238769531,0,1,faces,female,0,0,objects,A,big,EX,O,48,J03,197.564453125
0,1,0,25222,0.75390625,0.1953125,1,1,11,57,4,1186.17712402344,296.790405273438,0,1,faces,female,0,1,faces,A,male,VS,F,49,J03,201.763671875
0,1,0,25223,0.970703125,0.1796875,2,1,13,64,5,1287.22790527344,181.264862060547,0,1,faces,female,0,1,faces,A,male,VS,F,49,J03,201.763671875
1,1,0,25224,1.212890625,0.201171875,3,1,3,21,6,752.131164550781,315.253723144531,0,1,faces,male,0,1,faces,A,male,VS,F,49,J03,201.763671875
0,1,0,25225,1.466796875,0.154296875,4,1,6,34,7,831.583435058594,707.866027832031,0,1,objects,big,0,1,faces,A,male,VS,F,49,J03,201.763671875
0,1,0,25227,1.76953125,0.150390625,5,0,12,63,9,1132.46569824219,939.766723632812,0,1,faces,female,0,1,faces,A,male,VS,F,49,J03,201.763671875
1,1,0,25228,1.953125,0.169921875,6,0,9,45,10,933.840087890625,958.372192382812,0,1,faces,male,0,1,faces,A,male,VS,F,49,J03,201.763671875
2,1,0,25230,2.28125,0.22265625,7,0,9,45,12,963.823303222656,954.175964355469,0,1,faces,male,0,1,faces,A,male,VS,F,49,J03,201.763671875
0,1,0,25231,2.5390625,0.19921875,8,0,7,35,13,859.919372558594,856.581237792969,0,1,faces,female,0,1,faces,A,male,VS,F,49,J03,201.763671875
0,1,0,25233,2.96484375,0.181640625,9,0,10,46,15,1059.28466796875,109.372047424316,0,1,faces,male,0,1,faces,A,male,VS,F,49,J03,201.763671875
0,1,0,25234,3.171875,0.146484375,10,0,5,29,16,897.228881835938,251.89729309082,0,1,objects,small,0,1,faces,A,male,VS,F,49,J03,201.763671875
0,1,0,25235,3.341796875,0.140625,11,0,8,38,17,955.834533691406,232.523361206055,0,1,faces,male,0,1,faces,A,male,VS,F,49,J03,201.763671875
2,1,0,25236,3.513671875,0.314453125,12,0,3,21,18,719.866821289062,312.605285644531,0,1,faces,male,0,1,faces,A,male,VS,F,49,J03,201.763671875
0,1,0,25252,0.39453125,0.150390625,1,1,9,50,2,1087.28918457031,514.334106445312,0,1,faces,male,0,1,faces,A,female,EX,F,50,J03,205.962890625
0,1,1,25253,0.564453125,0.18359375,2,1,6,43,3,971.278503417969,693.996948242188,0,1,faces,male,0,1,faces,A,female,EX,F,50,J03,205.962890625
0,1,1,25255,1.0234375,0.142578125,3,1,1,5,5,552.643920898438,528.597290039062,0,1,faces,male,0,1,faces,A,female,EX,F,50,J03,205.962890625
0,1,1,25257,1.34765625,0.177734375,4,1,3,19,7,749.011413574219,157.607223510742,0,1,faces,female,0,1,faces,A,female,EX,F,50,J03,205.962890625
0,1,0,25266,3.46875,0.310546875,5,0,13,70,16,1306.09619140625,750.495727539062,0,1,faces,female,0,1,faces,A,female,EX,F,50,J03,205.962890625
0,1,1,25267,3.826171875,0.126953125,6,0,10,54,17,1082.39782714844,933.966918945312,0,1,objects,small,0,1,faces,A,female,EX,F,50,J03,205.962890625
1,1,0,25290,0.505859375,0.1875,1,1,7,40,3,978.301574707031,411.01611328125,0,1,faces,female,0,1,objects,A,big,VS,O,51,J03,210.162109375
0,1,0,25294,1.244140625,0.140625,2,1,12,66,7,1299.91162109375,314.306915283203,0,1,objects,big,0,1,objects,A,big,VS,O,51,J03,210.162109375
1,1,0,25295,1.400390625,0.150390625,3,1,13,67,8,1303.65515136719,422.377685546875,0,1,faces,female,0,1,objects,A,big,VS,O,51,J03,210.162109375
0,1,0,25297,1.771484375,0.16015625,4,1,2,15,10,660.639404296875,624.155944824219,0,1,objects,small,0,1,objects,A,big,VS,O,51,J03,210.162109375
0,1,0,25299,2.109375,0.21484375,5,0,3,21,12,784.211730957031,336.735168457031,0,1,objects,big,0,1,objects,A,big,VS,O,51,J03,210.162109375
0,1,0,25300,2.35546875,0.15625,6,0,5,29,13,882.381530761719,199.928909301758,0,1,faces,male,0,1,objects,A,big,VS,O,51,J03,210.162109375
0,1,0,25301,2.546875,0.134765625,7,0,1,1,14,597.474304199219,110.641975402832,0,1,faces,male,0,1,objects,A,big,VS,O,51,J03,210.162109375
2,1,0,25302,2.73828125,0.181640625,8,0,7,40,15,980.866149902344,453.970428466797,0,1,faces,female,0,1,objects,A,big,VS,O,51,J03,210.162109375
0,1,0,25303,2.970703125,0.21484375,9,0,15,78,16,1339.79968261719,605.602966308594,0,1,faces,male,0,1,objects,A,big,VS,O,51,J03,210.162109375
2,1,1,25305,3.388671875,0.142578125,10,0,13,67,18,1244.62768554688,486.956329345703,0,1,faces,female,0,1,objects,A,big,VS,O,51,J03,210.162109375
0,1,0,25307,3.880859375,0.4140625,11,0,11,61,20,1201.72998046875,749.604614257812,0,1,objects,small,0,1,objects,A,big,VS,O,51,J03,210.162109375
0,1,0,25321,0.275390625,0.123046875,1,1,12,68,2,1295.03283691406,589.053344726562,0,1,faces,male,1,1,objects,P,small,VS,O,52,J03,214.361328125
0,0,1,25323,0.630859375,0.609375,2,1,5,43,4,996.589538574219,764.190673828125,1,0,NaN,NaN,1,1,objects,P,small,VS,O,52,J03,214.361328125
0,1,0,25341,0.97265625,0.171875,1,1,7,38,6,996.424011230469,237.575485229492,0,1,faces,female,0,1,faces,P,female,VS,F,53,J03,218.560546875
0,1,0,25342,1.19140625,0.126953125,2,1,3,20,7,768.21337890625,213.883499145508,0,1,faces,male,0,1,faces,P,female,VS,F,53,J03,218.560546875
0,1,0,25343,1.35546875,0.107421875,3,1,2,10,8,662.016540527344,139.16291809082,0,1,objects,big,0,1,faces,P,female,VS,F,53,J03,218.560546875
0,1,0,25346,1.828125,2.41796875,4,1,9,42,11,999.525268554688,662.514038085938,0,1,faces,female,0,1,faces,P,female,VS,F,53,J03,218.560546875
0,1,0,25365,0.3515625,0.17578125,1,1,10,49,3,1102.95385742188,465.897003173828,0,1,faces,female,1,1,faces,P,male,VS,I,54,J03,222.759765625
0,1,0,25368,1.04296875,0.17578125,2,1,9,45,6,969.028015136719,914.766174316406,1,0,NaN,NaN,1,1,faces,P,male,VS,I,54,J03,222.759765625
1,1,0,25369,1.271484375,0.21875,3,1,4,8,7,605.6103515625,795.124633789062,0,1,faces,male,1,1,faces,P,male,VS,I,54,J03,222.759765625
0,1,0,25371,1.697265625,0.173828125,4,1,5,21,9,764.79541015625,348.598297119141,0,1,faces,female,1,1,faces,P,male,VS,I,54,J03,222.759765625
0,1,1,25372,1.91015625,0.142578125,5,0,7,31,10,857.946960449219,412.354431152344,0,1,faces,female,1,1,faces,P,male,VS,I,54,J03,222.759765625
0,1,0,25374,2.21484375,0.21484375,6,0,12,64,12,1288.099609375,108.625900268555,0,1,objects,big,1,1,faces,P,male,VS,I,54,J03,222.759765625
0,1,0,25376,2.61328125,0.470703125,7,0,1,1,14,565.651794433594,104.402893066406,0,1,faces,male,1,1,faces,P,male,VS,I,54,J03,222.759765625
0,1,0,25379,3.4296875,0.142578125,8,0,3,7,17,578.086853027344,773.1630859375,0,1,objects,small,1,1,faces,P,male,VS,I,54,J03,222.759765625
2,1,0,25380,3.59375,0.26953125,9,0,4,8,18,566.662658691406,845.277648925781,0,1,faces,male,1,1,faces,P,male,VS,I,54,J03,222.759765625
0,1,0,25396,0.19140625,0.20703125,1,1,12,41,1,934.106750488281,490.923980712891,0,1,objects,small,1,1,faces,P,male,VS,F,55,J03,226.958984375
0,1,0,25397,0.447265625,0.123046875,2,1,14,79,2,1382.02709960938,750.410949707031,0,1,faces,female,1,1,faces,P,male,VS,F,55,J03,226.958984375
0,1,0,25398,0.599609375,0.36328125,3,1,15,80,3,1400.685546875,836.852966308594,0,1,faces,male,1,1,faces,P,male,VS,F,55,J03,226.958984375
0,1,1,25399,1.025390625,0.1484375,4,1,11,38,4,955.450866699219,253.993270874023,0,1,faces,male,1,1,faces,P,male,VS,F,55,J03,226.958984375
0,0,1,25401,1.42578125,0.265625,5,0,4,20,6,782.400451660156,211.502502441406,1,0,NaN,NaN,1,1,faces,P,male,VS,F,55,J03,226.958984375
0,0,1,25404,3.189453125,0.265625,6,0,2,2,9,574.466979980469,220.013168334961,0,1,faces,female,1,1,faces,P,male,VS,F,55,J03,226.958984375
0,0,0,25406,3.650390625,0.6015625,7,0,1,1,11,553.652770996094,112.126594543457,0,1,objects,big,1,1,faces,P,male,VS,F,55,J03,226.958984375
0,0,0,25431,1.26953125,0.220703125,1,1,1,1,8,609.739562988281,100.711311340332,1,0,NaN,NaN,1,1,objects,P,small,VS,O,56,J03,231.158203125
0,0,0,25432,1.556640625,0.111328125,2,1,3,14,9,655.064147949219,524.940246582031,0,1,objects,big,1,1,objects,P,small,VS,O,56,J03,231.158203125
0,1,0,25454,0.203125,0.201171875,1,1,9,60,1,1171.92553710938,634.760620117188,0,1,faces,female,0,0,objects,A,big,EX,O,57,J03,235.357421875
0,1,0,25459,1.47265625,0.505859375,2,1,1,10,6,669.008483886719,100.993377685547,0,1,faces,male,0,0,objects,A,big,EX,O,57,J03,235.357421875
0,1,0,25462,2.376953125,0.255859375,3,1,10,61,9,1179.21411132812,739.447265625,0,1,faces,female,0,0,objects,A,big,EX,O,57,J03,235.357421875
0,1,1,25463,2.681640625,0.125,4,1,14,77,10,1387.65417480469,584.304748535156,0,1,faces,male,0,0,objects,A,big,EX,O,57,J03,235.357421875
0,1,0,25465,3.017578125,0.224609375,5,0,11,66,12,1299.49194335938,320.67822265625,0,1,objects,small,0,0,objects,A,big,EX,O,57,J03,235.357421875
0,1,0,25466,3.259765625,0.138671875,6,0,8,57,13,1190.63696289062,296.108306884766,0,1,objects,small,0,0,objects,A,big,EX,O,57,J03,235.357421875
0,1,0,25468,3.8046875,0.21875,7,0,6,37,15,1004.0634765625,99.4085083007812,0,1,faces,female,0,0,objects,A,big,EX,O,57,J03,235.357421875
1,1,0,25490,0.923828125,0.18359375,1,1,14,68,5,1305.76818847656,527.5546875,1,0,NaN,NaN,1,1,faces,P,female,VS,I,58,J03,239.556640625
1,1,0,25491,1.13671875,0.109375,2,1,13,67,6,1292.44567871094,427.726470947266,0,1,faces,male,1,1,faces,P,female,VS,I,58,J03,239.556640625
2,0,0,25492,1.263671875,0.830078125,3,1,14,68,7,1297.31311035156,553.374938964844,1,0,NaN,NaN,1,1,faces,P,female,VS,I,58,J03,239.556640625
0,0,0,25493,2.13671875,0.3515625,4,1,15,79,8,1399.55517578125,747.726196289062,0,1,faces,female,1,1,faces,P,female,VS,I,58,J03,239.556640625
2,0,0,25494,2.54296875,0.17578125,5,0,13,67,9,1297.48156738281,488.533172607422,0,1,faces,male,1,1,faces,P,female,VS,I,58,J03,239.556640625
0,0,0,25495,2.791015625,0.150390625,6,0,5,29,10,907.718444824219,256.891143798828,0,1,objects,big,1,1,faces,P,female,VS,I,58,J03,239.556640625
0,0,0,25496,2.96875,0.259765625,7,0,4,21,11,766.174499511719,300.019134521484,0,1,faces,female,1,1,faces,P,female,VS,I,58,J03,239.556640625
3,0,0,25497,3.287109375,0.64453125,8,0,14,68,12,1293.39233398438,558.17919921875,1,0,NaN,NaN,1,1,faces,P,female,VS,I,58,J03,239.556640625
1,1,1,25512,0.310546875,0.171875,1,1,9,41,2,985.036743164062,495.248626708984,0,1,faces,male,0,0,objects,P,small,VS,O,59,J03,243.755859375
1,1,0,25514,0.60546875,0.212890625,2,1,12,57,4,1204.43835449219,308.214874267578,0,1,objects,small,0,0,objects,P,small,VS,O,59,J03,243.755859375
0,1,0,25518,1.556640625,0.189453125,3,1,10,43,8,975.278137207031,708.987731933594,0,1,faces,female,0,0,objects,P,small,VS,O,59,J03,243.755859375
0,1,1,25519,1.779296875,0.142578125,4,1,11,54,9,1107.44201660156,908.298461914062,0,1,faces,female,0,0,objects,P,small,VS,O,59,J03,243.755859375
0,1,0,25521,2.21875,0.1484375,5,0,8,40,11,993.406555175781,482.965972900391,0,1,faces,female,0,0,objects,P,small,VS,O,59,J03,243.755859375
2,1,0,25522,2.380859375,0.240234375,6,0,9,41,12,961.169677734375,493.841156005859,0,1,faces,male,0,0,objects,P,small,VS,O,59,J03,243.755859375
0,1,0,25524,2.916015625,0.173828125,7,0,7,39,14,969.368347167969,386.855651855469,0,1,faces,female,0,0,objects,P,small,VS,O,59,J03,243.755859375
2,1,0,25525,3.11328125,0.39453125,8,0,12,57,15,1193.07702636719,308.711761474609,0,1,objects,small,0,0,objects,P,small,VS,O,59,J03,243.755859375
0,1,0,25526,3.55859375,0.283203125,9,0,15,75,16,1380.8544921875,304.813903808594,0,1,objects,big,0,0,objects,P,small,VS,O,59,J03,243.755859375
0,1,0,25527,3.8984375,0.138671875,10,0,4,12,17,687.850158691406,306.895874023438,0,1,faces,male,0,0,objects,P,small,VS,O,59,J03,243.755859375
0,1,0,25537,0.4609375,0.109375,1,1,3,33,2,846.966918945312,613.021301269531,0,1,objects,small,0,0,faces,P,male,VS,I,60,J03,247.955078125
0,1,0,25540,1.0234375,0.4609375,2,1,4,34,5,869.601318359375,713.494018554688,0,1,faces,male,0,0,faces,P,male,VS,I,60,J03,247.955078125
0,1,0,25543,1.9765625,0.279296875,3,1,6,46,8,1099.05786132812,98.9724655151367,0,1,faces,male,0,0,faces,P,male,VS,I,60,J03,247.955078125
0,1,0,25547,3.052734375,0.15625,4,1,15,81,12,1386.07739257812,959.323120117188,0,1,faces,female,0,0,faces,P,male,VS,I,60,J03,247.955078125
0,1,0,25548,3.259765625,0.375,5,0,14,79,13,1385.0146484375,761.902404785156,0,1,faces,female,0,0,faces,P,male,VS,I,60,J03,247.955078125
0,1,1,25550,3.744140625,0.1015625,6,0,13,78,15,1399.82531738281,647.115966796875,0,1,objects,small,0,0,faces,P,male,VS,I,60,J03,247.955078125
0,1,1,25566,1.09375,0.197265625,1,1,15,78,5,1313.76000976562,624.73681640625,0,1,faces,female,0,1,faces,A,female,VS,I,61,J03,252.154296875
0,1,1,25574,3.0390625,0.130859375,2,1,5,39,13,999.195983886719,332.810394287109,0,1,faces,female,0,1,faces,A,female,VS,I,61,J03,252.154296875
0,1,0,25577,3.65234375,0.2109375,3,1,9,57,16,1175.25073242188,289.839172363281,0,1,faces,female,0,1,faces,A,female,VS,I,61,J03,252.154296875
0,1,0,25590,1.5390625,0.1484375,1,1,6,22,4,738.598388671875,488.324371337891,0,1,faces,male,0,1,faces,P,female,VS,F,62,J03,256.353515625
0,1,0,25592,1.8125,0.255859375,2,1,2,5,6,543.82421875,537.80517578125,0,1,faces,female,0,1,faces,P,female,VS,F,62,J03,256.353515625
0,1,0,25593,2.099609375,0.138671875,3,1,1,4,7,535.261352539062,401.612762451172,0,1,faces,male,0,1,faces,P,female,VS,F,62,J03,256.353515625
0,1,0,25594,2.29296875,0.228515625,4,1,3,8,8,539.090087890625,823.59912109375,0,1,objects,small,0,1,faces,P,female,VS,F,62,J03,256.353515625
0,1,1,25595,2.580078125,0.138671875,5,0,14,79,9,1318.283203125,767.290100097656,0,1,objects,big,0,1,faces,P,female,VS,F,62,J03,256.353515625
0,1,0,25600,3.521484375,0.11328125,6,0,10,50,14,1079.06701660156,498.580535888672,0,1,faces,male,0,1,faces,P,female,VS,F,62,J03,256.353515625
0,1,1,25615,0.240234375,0.255859375,1,1,12,50,1,1061.53381347656,537.841430664062,0,1,faces,female,0,1,faces,A,male,EX,F,63,J03,260.552734375
0,1,1,25617,0.650390625,0.138671875,2,1,7,29,3,881.866638183594,204.449310302734,0,1,objects,big,0,1,faces,A,male,EX,F,63,J03,260.552734375
0,1,0,25621,1.4921875,0.25390625,3,1,3,13,7,639.379638671875,395.620849609375,0,1,faces,male,0,1,faces,A,male,EX,F,63,J03,260.552734375
0,1,0,25622,1.796875,0.193359375,4,1,6,25,8,746.555541992188,719.117431640625,0,1,objects,big,0,1,faces,A,male,EX,F,63,J03,260.552734375
0,1,1,25624,2.328125,0.142578125,5,0,4,16,10,635.455078125,712.3818359375,0,1,faces,male,0,1,faces,A,male,EX,F,63,J03,260.552734375
1,1,0,25648,0.806640625,0.177734375,1,1,6,21,5,736.033081054688,291.136993408203,0,1,faces,male,0,1,faces,A,male,VS,I,64,J03,264.751953125
0,1,1,25649,1.029296875,0.15625,2,1,13,68,6,1235.13793945312,553.069885253906,0,1,objects,big,0,1,faces,A,male,VS,I,64,J03,264.751953125
0,1,0,25651,1.380859375,0.224609375,3,1,15,77,8,1398.09997558594,508.021270751953,0,1,faces,male,0,1,faces,A,male,VS,I,64,J03,264.751953125
0,1,0,25652,1.658203125,0.109375,4,1,12,60,9,1185.6298828125,632.779663085938,0,1,faces,female,0,1,faces,A,male,VS,I,64,J03,264.751953125
2,1,0,25654,2.015625,0.2421875,5,0,6,21,11,754.521301269531,296.3896484375,0,1,faces,male,0,1,faces,A,male,VS,I,64,J03,264.751953125
1,1,0,25657,3.041015625,0.146484375,6,0,1,5,14,548.556640625,544.289184570312,0,1,faces,male,0,1,faces,A,male,VS,I,64,J03,264.751953125
0,1,0,25658,3.2109375,0.24609375,7,0,2,7,15,531.772521972656,715.703796386719,0,1,faces,male,0,1,faces,A,male,VS,I,64,J03,264.751953125
2,1,0,25659,3.4921875,0.248046875,8,0,1,5,16,523.913391113281,514.959655761719,0,1,faces,male,0,1,faces,A,male,VS,I,64,J03,264.751953125
0,1,0,25660,3.775390625,0.265625,9,0,5,17,17,619.682006835938,799.24755859375,0,1,faces,female,0,1,faces,A,male,VS,I,64,J03,264.751953125
0,1,0,25678,0.38671875,0.146484375,1,1,11,67,2,1211.0068359375,444.700103759766,0,1,objects,big,1,0,faces,P,male,VS,I,65,J03,268.951171875
0,1,0,25679,0.544921875,0.138671875,2,1,9,59,3,1163.97106933594,499.46044921875,0,1,objects,big,1,0,faces,P,male,VS,I,65,J03,268.951171875
0,1,0,25684,1.39453125,0.111328125,3,1,7,46,8,1072.44104003906,103.677932739258,0,1,faces,male,1,0,faces,P,male,VS,I,65,J03,268.951171875
1,1,0,25686,1.748046875,0.189453125,4,1,2,12,10,642.3857421875,290.20166015625,0,1,faces,female,1,0,faces,P,male,VS,I,65,J03,268.951171875
0,1,0,25687,1.96484375,0.20703125,5,0,5,39,11,958.238708496094,315.572998046875,0,1,faces,female,1,0,faces,P,male,VS,I,65,J03,268.951171875
2,1,0,25689,2.404296875,0.287109375,6,0,2,12,13,651.019104003906,297.472137451172,0,1,faces,female,1,0,faces,P,male,VS,I,65,J03,268.951171875
0,1,0,25690,2.748046875,0.138671875,7,0,8,50,14,1055.58020019531,578.248596191406,0,1,faces,female,1,0,faces,P,male,VS,I,65,J03,268.951171875
0,0,0,25691,2.9140625,0.470703125,8,0,6,42,15,976.911560058594,620.071655273438,1,0,NaN,NaN,1,0,faces,P,male,VS,I,65,J03,268.951171875
0,0,0,25692,3.41796875,0.177734375,9,0,4,23,16,731.518371582031,530.644287109375,0,1,objects,small,1,0,faces,P,male,VS,I,65,J03,268.951171875
0,0,0,25694,3.8671875,0.154296875,10,0,15,80,18,1389.97631835938,817.3076171875,0,1,faces,male,1,0,faces,P,male,VS,I,65,J03,268.951171875
0,1,0,25714,0.443359375,0.123046875,1,1,10,49,3,1056.02392578125,419.783966064453,0,1,faces,female,0,0,faces,A,female,VS,F,66,J03,273.150390625
0,1,0,25715,0.607421875,0.22265625,2,1,6,32,4,870.976135253906,536.276123046875,0,1,faces,male,0,0,faces,A,female,VS,F,66,J03,273.150390625
0,1,0,25717,1.138671875,0.185546875,3,1,1,6,6,538.707336425781,607.391296386719,0,1,faces,male,0,0,faces,A,female,VS,F,66,J03,273.150390625
0,1,0,25718,1.365234375,0.150390625,4,1,12,63,7,1188.62658691406,899.202819824219,0,1,objects,big,0,0,faces,A,female,VS,F,66,J03,273.150390625
0,1,0,25720,1.740234375,0.1484375,5,0,14,71,9,1279.61950683594,813.047119140625,0,1,faces,female,0,0,faces,A,female,VS,F,66,J03,273.150390625
1,1,1,25721,1.953125,1.162109375,6,0,2,9,10,552.094665527344,918.453125,0,1,faces,female,0,0,faces,A,female,VS,F,66,J03,273.150390625
0,1,1,25723,3.41015625,0.111328125,7,0,4,28,12,866.299743652344,175.667297363281,0,1,faces,male,0,0,faces,A,female,VS,F,66,J03,273.150390625
2,1,0,25726,3.96875,0.291015625,8,0,2,9,15,548.109802246094,918.318786621094,0,1,faces,female,0,0,faces,A,female,VS,F,66,J03,273.150390625
1,1,0,25734,0.498046875,0.11328125,1,1,7,33,2,812.367004394531,591.903259277344,0,1,faces,male,0,1,faces,A,female,EX,I,67,J03,277.349609375
1,1,0,25735,0.63671875,0.107421875,2,1,5,24,3,742.1904296875,607.772399902344,0,1,faces,male,0,1,faces,A,female,EX,I,67,J03,277.349609375
0,1,1,25737,1.05859375,0.150390625,3,1,15,68,5,1301.88940429688,507.608673095703,0,1,faces,male,0,1,faces,A,female,EX,I,67,J03,277.349609375
0,1,0,25740,1.525390625,0.12890625,4,1,14,56,8,1131.80407714844,253.190216064453,0,1,faces,female,0,1,faces,A,female,EX,I,67,J03,277.349609375
0,1,0,25745,2.63671875,0.232421875,5,0,2,6,13,525.798095703125,598.62060546875,0,1,faces,female,0,1,faces,A,female,EX,I,67,J03,277.349609375
2,1,0,25746,2.900390625,0.228515625,6,0,5,24,14,755.143859863281,607.739440917969,0,1,faces,male,0,1,faces,A,female,EX,I,67,J03,277.349609375
2,1,0,25747,3.158203125,0.109375,7,0,7,33,15,873.396911621094,614.617309570312,0,1,faces,male,0,1,faces,A,female,EX,I,67,J03,277.349609375
0,1,1,25748,3.306640625,0.2578125,8,0,9,42,16,992.228149414062,600.607421875,0,1,objects,big,0,1,faces,A,female,EX,I,67,J03,277.349609375
3,1,0,25750,3.830078125,0.115234375,9,0,7,33,18,819.442138671875,659.850891113281,0,1,faces,male,0,1,faces,A,female,EX,I,67,J03,277.349609375
0,1,0,25765,0.361328125,0.15234375,1,1,9,39,1,916.768920898438,310.624267578125,0,1,objects,big,1,1,objects,P,big,VS,O,68,J03,281.548828125
0,1,0,25766,1.0234375,0.291015625,2,1,1,2,2,540.153625488281,192.99853515625,0,1,objects,big,1,1,objects,P,big,VS,O,68,J03,281.548828125
0,1,0,25767,1.37109375,0.103515625,3,1,8,37,3,926.856323242188,166.493347167969,0,1,faces,male,1,1,objects,P,big,VS,O,68,J03,281.548828125
0,1,0,25769,1.703125,0.123046875,4,1,5,15,5,642.652465820312,605.146850585938,0,1,faces,female,1,1,objects,P,big,VS,O,68,J03,281.548828125
0,1,0,25770,1.880859375,0.2109375,5,0,12,69,6,1299.75109863281,647.099365234375,0,1,faces,female,1,1,objects,P,big,VS,O,68,J03,281.548828125
0,0,0,25772,2.259765625,1.95703125,6,0,15,80,8,1392.42639160156,839.569396972656,1,0,NaN,NaN,1,1,objects,P,big,VS,O,68,J03,281.548828125
0,1,0,25785,0.23046875,0.2578125,1,1,8,33,1,853.022705078125,631.391906738281,0,1,objects,big,1,0,faces,P,male,VS,F,69,J03,285.748046875
0,1,0,25794,1.744140625,0.353515625,2,1,5,26,10,727.976928710938,822.622985839844,0,1,faces,male,1,0,faces,P,male,VS,F,69,J03,285.748046875
0,0,0,25795,2.140625,0.2421875,3,1,2,8,11,539.447814941406,836.491088867188,1,0,NaN,NaN,1,0,faces,P,male,VS,F,69,J03,285.748046875
0,0,0,25796,2.427734375,0.1484375,4,1,3,9,12,527.092956542969,933.837463378906,0,1,faces,female,1,0,faces,P,male,VS,F,69,J03,285.748046875
0,0,0,25798,2.828125,0.138671875,5,0,6,28,14,868.289367675781,101.313583374023,0,1,objects,small,1,0,faces,P,male,VS,F,69,J03,285.748046875
0,0,0,25800,3.123046875,0.18359375,6,0,11,56,16,1198.29809570312,200.989196777344,0,1,objects,big,1,0,faces,P,male,VS,F,69,J03,285.748046875
0,0,0,25802,3.703125,0.234375,7,0,12,59,18,1180.70727539062,545.546447753906,0,1,faces,female,1,0,faces,P,male,VS,F,69,J03,285.748046875
0,1,0,25816,0.453125,0.216796875,1,1,2,13,2,632.632934570312,421.307373046875,0,1,faces,female,0,1,faces,A,male,EX,I,70,J03,289.947265625
0,1,0,25818,0.908203125,0.18359375,2,1,8,48,4,1083.00207519531,291.479125976562,0,1,faces,male,0,1,faces,A,male,EX,I,70,J03,289.947265625
0,1,0,25819,1.130859375,0.158203125,3,1,12,73,5,1322.2734375,137.023422241211,0,1,objects,small,0,1,faces,A,male,EX,I,70,J03,289.947265625
0,1,0,25823,2.6875,0.1328125,4,1,14,78,9,1402.50842285156,590.782836914062,0,1,faces,male,0,1,faces,A,male,EX,I,70,J03,289.947265625
0,1,0,25826,3.38671875,0.140625,5,0,9,53,12,1028.17761230469,798.794250488281,0,1,faces,female,0,1,faces,A,male,EX,I,70,J03,289.947265625
0,1,0,25837,0.203125,0.166015625,1,1,14,78,1,1348.58654785156,641.780883789062,0,1,faces,male,0,1,objects,A,small,EX,O,71,J03,294.146484375
1,1,0,25838,0.40625,0.17578125,2,1,9,61,2,1141.75183105469,706.533264160156,0,1,faces,male,0,1,objects,A,small,EX,O,71,J03,294.146484375
0,1,0,25840,0.787109375,0.40234375,3,1,8,57,4,1184.53820800781,291.440673828125,0,1,faces,male,0,1,objects,A,small,EX,O,71,J03,294.146484375
0,1,1,25841,1.25390625,0.142578125,4,1,5,21,5,721.142028808594,308.648406982422,0,1,faces,female,0,1,objects,A,small,EX,O,71,J03,294.146484375
0,1,1,25843,1.541015625,0.166015625,5,0,2,3,7,565.547912597656,294.775848388672,0,1,faces,female,0,1,objects,A,small,EX,O,71,J03,294.146484375
0,1,0,25845,1.93359375,0.310546875,6,0,1,2,9,541.987060546875,200.068893432617,0,1,faces,female,0,1,objects,A,small,EX,O,71,J03,294.146484375
0,1,0,25846,2.32421875,0.173828125,7,0,13,70,10,1303.68200683594,719.548706054688,0,1,objects,small,0,1,objects,A,small,EX,O,71,J03,294.146484375
2,1,1,25847,2.525390625,0.337890625,8,0,9,61,11,1208.0859375,709.842590332031,0,1,faces,male,0,1,objects,A,small,EX,O,71,J03,294.146484375
0,1,0,25849,3.220703125,0.125,9,0,10,62,13,1204.48022460938,796.786560058594,0,1,faces,female,0,1,objects,A,small,EX,O,71,J03,294.146484375
0,1,1,25873,1.09765625,0.15625,1,1,2,8,6,602.857604980469,813.984985351562,0,1,faces,male,0,1,objects,A,small,VS,O,72,J03,298.345703125
0,1,1,25875,1.384765625,0.146484375,2,1,7,27,8,735.586120605469,917.964599609375,0,1,faces,female,0,1,objects,A,small,VS,O,72,J03,298.345703125
0,1,0,25878,1.8046875,0.166015625,3,1,15,78,11,1396.390625,608.84814453125,0,1,faces,male,0,1,objects,A,small,VS,O,72,J03,298.345703125
0,1,0,25879,2.0234375,0.1875,4,1,6,22,12,804.309997558594,406.426055908203,0,1,objects,small,0,1,objects,A,small,VS,O,72,J03,298.345703125
0,1,0,25880,2.24609375,0.107421875,5,0,5,13,13,701.042663574219,418.507659912109,0,1,faces,male,0,1,objects,A,small,VS,O,72,J03,298.345703125
0,1,0,25882,2.52734375,0.18359375,6,0,13,66,15,1217.10754394531,303.897247314453,0,1,faces,male,0,1,objects,A,small,VS,O,72,J03,298.345703125
0,1,0,25883,2.75390625,0.23046875,7,0,10,38,16,999.812255859375,238.828048706055,0,1,faces,male,0,1,objects,A,small,VS,O,72,J03,298.345703125
0,1,0,25885,3.185546875,0.23828125,8,0,14,75,18,1402.66418457031,295.108673095703,0,1,objects,small,0,1,objects,A,small,VS,O,72,J03,298.345703125
0,1,1,26098,3.27734375,0.23046875,1,1,15,71,14,1291.34680175781,805.266540527344,0,1,faces,male,0,1,faces,A,male,EX,I,73,J03,302.544921875
0,1,1,26119,0.677734375,0.12109375,1,1,2,37,2,1001.84448242188,140.66325378418,0,1,objects,big,0,0,objects,A,big,EX,O,74,J03,306.744140625
0,1,0,26123,1.4140625,0.12109375,2,1,13,75,6,1350.55541992188,298.865631103516,0,1,faces,female,0,0,objects,A,big,EX,O,74,J03,306.744140625
0,1,0,26128,2.689453125,0.390625,3,1,14,77,11,1404.92895507812,517.991088867188,0,1,faces,female,0,0,objects,A,big,EX,O,74,J03,306.744140625
0,1,1,26160,0.818359375,0.177734375,1,1,13,73,5,1326.03625488281,142.285308837891,0,1,faces,male,1,1,objects,P,small,VS,O,75,J03,310.943359375
0,1,0,26167,1.900390625,0.115234375,2,1,3,24,12,807.696899414062,623.780517578125,1,0,NaN,NaN,1,1,objects,P,small,VS,O,75,J03,310.943359375
0,1,0,26168,2.056640625,0.15625,3,1,5,41,13,950.856811523438,501.489501953125,0,1,faces,female,1,1,objects,P,small,VS,O,75,J03,310.943359375
0,1,0,26195,0.189453125,0.19921875,1,1,5,31,1,869.550842285156,465.914459228516,0,1,faces,male,0,1,objects,A,small,VS,O,76,J03,315.142578125
0,1,0,26202,1.9375,0.212890625,2,1,10,50,8,1051.71716308594,493.839141845703,0,1,objects,big,0,1,objects,A,small,VS,O,76,J03,315.142578125
0,1,0,26229,0.818359375,0.158203125,1,1,11,58,4,1191.00024414062,393.589660644531,1,0,NaN,NaN,1,1,objects,P,small,VS,O,77,J03,319.341796875
0,1,0,26263,0.869140625,0.140625,1,1,9,48,2,1045.59436035156,335.102203369141,0,1,faces,female,0,1,faces,A,male,VS,I,78,J03,323.541015625
0,1,0,26265,1.287109375,0.109375,2,1,2,14,4,629.501831054688,491.884857177734,0,1,objects,small,0,1,faces,A,male,VS,I,78,J03,323.541015625
1,1,0,26285,0.408203125,0.19921875,1,1,8,57,2,1163.40222167969,350.300476074219,1,0,NaN,NaN,1,1,objects,P,small,VS,O,79,J03,327.740234375
0,1,0,26286,0.634765625,0.216796875,2,1,12,65,3,1219.49609375,242.805862426758,0,1,faces,female,1,1,objects,P,small,VS,O,79,J03,327.740234375
2,0,0,26288,2.1171875,0.244140625,3,1,8,57,5,1121.24963378906,297.412994384766,1,0,NaN,NaN,1,1,objects,P,small,VS,O,79,J03,327.740234375
0,0,0,26289,2.423828125,0.126953125,4,1,1,14,6,665.196716308594,587.108520507812,0,1,faces,female,1,1,objects,P,small,VS,O,79,J03,327.740234375
0,1,0,26313,1.986328125,0.1953125,1,1,13,74,9,1361.67639160156,275.721923828125,0,1,objects,small,0,1,faces,A,female,EX,I,80,J03,331.939453125
0,1,1,26317,2.857421875,0.103515625,2,1,15,80,13,1380.47143554688,828.183227539062,0,1,faces,male,0,1,faces,A,female,EX,I,80,J03,331.939453125
0,1,0,26320,3.337890625,0.10546875,3,1,12,59,16,1173.55517578125,507.948181152344,0,1,objects,small,0,1,faces,A,female,EX,I,80,J03,331.939453125
0,1,0,26321,3.4921875,0.14453125,4,1,6,29,17,888.586486816406,287.563415527344,0,1,objects,small,0,1,faces,A,female,EX,I,80,J03,331.939453125
0,1,0,26323,3.947265625,0.337890625,5,0,5,28,19,814.592224121094,136.553848266602,0,1,faces,male,0,1,faces,A,female,EX,I,80,J03,331.939453125
0,1,0,26339,0.59375,0.1328125,1,1,8,46,3,1024.93176269531,106.23819732666,0,1,objects,big,0,1,faces,A,male,EX,F,81,J03,336.138671875
1,1,0,26343,1.591796875,0.26171875,2,1,4,33,7,817.189575195312,648.853515625,0,1,faces,male,0,1,faces,A,male,EX,F,81,J03,336.138671875
0,1,0,26344,1.890625,0.12890625,3,1,1,23,8,719.734680175781,576.412475585938,0,1,objects,small,0,1,faces,A,male,EX,F,81,J03,336.138671875
2,1,0,26347,2.54296875,0.1484375,4,1,4,33,11,824.074035644531,589.560852050781,0,1,faces,male,0,1,faces,A,male,EX,F,81,J03,336.138671875
1,1,1,26348,2.744140625,0.1796875,5,0,13,67,12,1261.39794921875,406.722442626953,0,1,faces,male,0,1,faces,A,male,EX,F,81,J03,336.138671875
2,1,1,26350,3.048828125,0.12890625,6,0,13,67,14,1271.51745605469,391.182922363281,0,1,faces,male,0,1,faces,A,male,EX,F,81,J03,336.138671875
0,1,0,26351,3.21484375,0.333984375,7,0,10,57,15,1157.23510742188,297.877044677734,0,1,faces,male,0,1,faces,A,male,EX,F,81,J03,336.138671875
1,1,0,26373,0.400390625,0.203125,1,1,10,59,3,1161.68823242188,490.756622314453,0,1,faces,female,0,1,faces,A,female,VS,I,82,J03,340.337890625
0,1,0,26379,1.9375,0.150390625,2,1,9,58,9,1175.23510742188,407.793701171875,0,1,faces,female,0,1,faces,A,female,VS,I,82,J03,340.337890625
1,1,0,26384,2.919921875,0.1484375,3,1,4,32,14,890.636596679688,514.028076171875,0,1,faces,male,0,1,faces,A,female,VS,I,82,J03,340.337890625
2,1,0,26385,3.125,0.228515625,4,1,10,59,15,1189.91528320312,496.186187744141,0,1,faces,female,0,1,faces,A,female,VS,I,82,J03,340.337890625
2,1,1,26386,3.4140625,0.16796875,5,0,4,32,16,817.471313476562,511.392028808594,0,1,faces,male,0,1,faces,A,female,VS,I,82,J03,340.337890625
0,1,1,26412,0.50390625,0.107421875,1,1,12,69,2,1297.70471191406,608.703186035156,0,1,faces,male,0,1,faces,A,female,VS,F,83,J03,344.537109375
1,1,0,26570,1.57421875,0.173828125,1,1,8,41,6,979.956298828125,511.251495361328,1,0,NaN,NaN,1,1,faces,P,female,VS,I,88,J03,365.533203125
2,1,0,26574,2.080078125,0.126953125,2,1,8,41,10,926.546020507812,510.041351318359,1,0,NaN,NaN,1,1,faces,P,female,VS,I,88,J03,365.533203125
0,1,0,26596,0.259765625,0.16015625,1,1,11,47,2,1063.03247070312,210.651184082031,0,1,faces,female,0,1,faces,P,female,VS,F,89,J03,369.732421875
0,1,0,26598,0.64453125,0.142578125,2,1,4,22,4,763.314208984375,397.330627441406,0,1,faces,male,0,1,faces,P,female,VS,F,89,J03,369.732421875
0,1,0,26636,1.462890625,0.125,1,1,2,15,8,702.802856445312,623.599914550781,0,1,faces,female,0,1,faces,A,male,VS,F,90,J03,373.931640625
0,1,0,26637,1.626953125,0.23046875,2,1,4,25,9,723.97021484375,750.070129394531,0,1,faces,male,0,1,faces,A,male,VS,F,90,J03,373.931640625
0,1,0,26638,1.896484375,0.12109375,3,1,7,44,10,1004.14208984375,847.790161132812,0,1,faces,male,0,1,faces,A,male,VS,F,90,J03,373.931640625
0,1,0,26643,2.951171875,0.25,4,1,9,58,15,1169.0576171875,433.578247070312,0,1,faces,male,0,1,faces,A,male,VS,F,90,J03,373.931640625
0,1,0,26644,3.23046875,0.376953125,5,0,11,67,16,1285.78161621094,418.436279296875,0,1,faces,female,0,1,faces,A,male,VS,F,90,J03,373.931640625
0,1,0,26645,3.658203125,0.134765625,6,0,8,55,17,1128.75341796875,122.756042480469,0,1,faces,female,0,1,faces,A,male,VS,F,90,J03,373.931640625
0,1,0,26680,2.478515625,0.126953125,1,1,13,73,9,1323.7724609375,169.327911376953,0,1,objects,small,0,0,faces,P,male,VS,I,91,J03,378.130859375
1,1,1,26684,3.5703125,0.10546875,2,1,6,35,13,831.509216308594,846.968444824219,0,1,faces,male,0,0,faces,P,male,VS,I,91,J03,378.130859375
2,1,0,26688,3.958984375,0.14453125,3,1,6,35,17,821.576782226562,804.349792480469,0,1,faces,male,0,0,faces,P,male,VS,I,91,J03,378.130859375
0,1,0,26737,3.68359375,0.12890625,1,1,12,58,1,1172.96997070312,411.388427734375,0,1,objects,small,0,1,faces,A,female,EX,F,95,J03,394.927734375
0,1,0,26738,2.73828125,0.125,1,1,5,23,1,740.691772460938,532.86865234375,0,1,faces,male,0,1,objects,A,big,VS,O,96,J03,399.126953125
1,1,1,26752,0.341796875,0.13671875,1,1,9,40,2,954.38427734375,445.205596923828,1,0,NaN,NaN,1,1,objects,P,small,VS,O,97,J03,403.326171875
0,0,0,26755,2.091796875,0.26953125,2,1,14,77,5,1375.03601074219,524.519897460938,0,1,faces,female,1,1,objects,P,small,VS,O,97,J03,403.326171875
2,0,1,26756,2.3984375,0.1484375,3,1,9,40,6,995.168884277344,425.399719238281,1,0,NaN,NaN,1,1,objects,P,small,VS,O,97,J03,403.326171875
0,0,0,26759,3.837890625,0.244140625,4,1,12,55,9,1179.18188476562,89.6023254394531,0,1,objects,big,1,1,objects,P,small,VS,O,97,J03,403.326171875
0,1,0,26774,0.705078125,0.189453125,1,1,7,38,4,956.995666503906,205.618118286133,0,1,faces,male,0,1,faces,A,female,EX,F,98,J03,407.525390625
0,1,0,26775,0.931640625,0.3671875,2,1,4,11,5,623.362487792969,196.756423950195,0,1,faces,male,0,1,faces,A,female,EX,F,98,J03,407.525390625
0,1,0,26779,1.916015625,0.35546875,3,1,14,76,9,1402.462890625,413.910980224609,0,1,faces,female,0,1,faces,A,female,EX,F,98,J03,407.525390625
0,1,0,26781,2.51953125,0.212890625,4,1,15,79,11,1404.42053222656,718.274719238281,0,1,faces,male,0,1,faces,A,female,EX,F,98,J03,407.525390625
0,1,0,26786,3.6171875,0.26171875,5,0,11,63,16,1176.95666503906,929.322265625,0,1,objects,big,0,1,faces,A,female,EX,F,98,J03,407.525390625
0,1,0,26796,0.568359375,0.1640625,1,1,6,48,1,1088.89697265625,307.619812011719,0,1,faces,male,0,1,faces,A,female,VS,I,99,J03,411.724609375
0,1,0,26797,0.77734375,0.232421875,2,1,10,65,2,1249.95166015625,205.86376953125,0,1,faces,male,0,1,faces,A,female,VS,I,99,J03,411.724609375
1,1,0,26800,1.41015625,0.1328125,3,1,9,62,5,1186.23034667969,832.163269042969,0,1,faces,female,0,1,faces,A,female,VS,I,99,J03,411.724609375
0,1,0,26805,2.376953125,0.3984375,4,1,5,36,10,830.534484863281,900.472412109375,0,1,faces,female,0,1,faces,A,female,VS,I,99,J03,411.724609375
0,1,0,26808,3.19921875,0.111328125,5,0,3,8,13,510.277069091797,851.729370117188,0,1,faces,male,0,1,faces,A,female,VS,I,99,J03,411.724609375
2,1,0,26810,3.572265625,0.134765625,6,0,9,62,15,1152.88269042969,870.731994628906,0,1,faces,female,0,1,faces,A,female,VS,I,99,J03,411.724609375
0,1,0,26811,3.751953125,0.111328125,7,0,7,52,16,1058.28845214844,754.523010253906,0,1,faces,male,0,1,faces,A,female,VS,I,99,J03,411.724609375
0,1,0,26827,0.353515625,0.16015625,1,1,8,42,2,980.084228515625,613.166870117188,0,1,objects,small,0,1,faces,A,male,VS,I,100,J03,415.923828125
1,1,0,26829,0.740234375,0.130859375,2,1,1,6,4,515.48583984375,619.694152832031,0,1,faces,male,0,1,faces,A,male,VS,I,100,J03,415.923828125
1,1,0,26830,0.91796875,0.138671875,3,1,5,28,5,819.138244628906,170.841888427734,0,1,faces,male,0,1,faces,A,male,VS,I,100,J03,415.923828125
2,1,0,26833,1.50390625,0.123046875,4,1,1,6,8,597.470397949219,634.803466796875,0,1,faces,male,0,1,faces,A,male,VS,I,100,J03,415.923828125
0,1,0,26835,1.9375,0.18359375,5,0,7,35,10,809.828125,845.864807128906,0,1,objects,big,0,1,faces,A,male,VS,I,100,J03,415.923828125
0,1,0,26839,2.623046875,0.1640625,6,0,11,57,14,1192.97766113281,317.42236328125,0,1,faces,female,0,1,faces,A,male,VS,I,100,J03,415.923828125
0,1,1,26841,3.0078125,0.130859375,7,0,15,76,16,1342.1787109375,403.639892578125,0,1,faces,female,0,1,faces,A,male,VS,I,100,J03,415.923828125
0,1,0,26843,3.341796875,0.126953125,8,0,10,50,18,1031.896484375,521.37255859375,0,1,objects,big,0,1,faces,A,male,VS,I,100,J03,415.923828125
2,1,0,26845,3.6484375,0.150390625,9,0,5,28,20,852.421081542969,92.2886276245117,0,1,faces,male,0,1,faces,A,male,VS,I,100,J03,415.923828125
0,1,0,26870,2.01171875,0.173828125,1,1,15,77,11,1398.90283203125,514.413024902344,0,1,faces,female,0,1,objects,A,small,VS,O,101,J03,420.123046875
0,1,1,26871,2.2421875,0.193359375,2,1,11,60,12,1133.30603027344,595.012023925781,0,1,faces,male,0,1,objects,A,small,VS,O,101,J03,420.123046875
0,1,0,26880,3.966796875,0.318359375,3,1,1,4,21,514.644104003906,455.666015625,0,1,objects,small,0,1,objects,A,small,VS,O,101,J03,420.123046875
0,1,0,26904,0.369140625,0.115234375,1,1,9,48,3,1017.43853759766,360.406280517578,0,1,faces,male,0,1,faces,P,female,VS,I,102,J03,424.322265625
0,1,0,26905,0.513671875,0.140625,2,1,8,47,4,1056.17236328125,228.180526733398,0,1,objects,small,0,1,faces,P,female,VS,I,102,J03,424.322265625
0,1,1,26931,0.3828125,0.14453125,1,1,8,49,2,1093.96484375,448.898223876953,0,1,faces,female,0,1,faces,A,male,VS,F,103,J03,428.521484375
0,1,0,26936,1.388671875,0.150390625,2,1,14,78,7,1372.22326660156,648.208984375,0,1,faces,male,0,1,faces,A,male,VS,F,103,J03,428.521484375
1,1,0,26937,1.609375,0.19140625,3,1,4,25,8,808.867431640625,716.807250976562,0,1,faces,male,0,1,faces,A,male,VS,F,103,J03,428.521484375
1,1,0,26938,1.82421875,0.150390625,4,1,1,16,9,684.657043457031,705.834716796875,0,1,faces,male,0,1,faces,A,male,VS,F,103,J03,428.521484375
2,1,0,26939,1.986328125,0.19140625,5,0,4,25,10,719.151000976562,706.87353515625,0,1,faces,male,0,1,faces,A,male,VS,F,103,J03,428.521484375
0,1,0,26940,2.216796875,0.173828125,6,0,7,43,11,940.922119140625,711.556945800781,0,1,faces,female,0,1,faces,A,male,VS,F,103,J03,428.521484375
0,1,1,26943,2.712890625,0.119140625,7,0,15,80,14,1393.00964355469,790.604064941406,0,1,faces,male,0,1,faces,A,male,VS,F,103,J03,428.521484375
2,1,0,26950,3.978515625,0.138671875,8,0,1,16,21,691.833923339844,697.253173828125,0,1,faces,male,0,1,faces,A,male,VS,F,103,J03,428.521484375
0,1,0,26970,1.115234375,0.1640625,1,1,11,64,4,1257.9169921875,125.909202575684,0,1,faces,female,0,1,faces,A,female,EX,I,104,J03,432.720703125
0,1,0,27038,0.443359375,0.177734375,1,1,7,48,3,1017.03033447266,293.236450195312,0,1,objects,big,0,1,objects,P,big,VS,O,106,J03,441.119140625
0,1,0,27063,0.56640625,0.142578125,1,1,14,69,3,1257.58166503906,597.574462890625,0,1,faces,male,0,1,objects,A,big,VS,O,107,J03,445.318359375
1,1,0,27064,0.744140625,0.123046875,2,1,13,68,4,1287.04565429688,490.557434082031,0,1,objects,big,0,1,objects,A,big,VS,O,107,J03,445.318359375
1,1,0,27065,1.0859375,0.10546875,3,1,7,41,5,942.228088378906,555.75439453125,0,1,faces,female,0,1,objects,A,big,VS,O,107,J03,445.318359375
0,1,0,27066,1.28125,0.130859375,4,1,1,6,6,589.255859375,602.470397949219,0,1,faces,male,0,1,objects,A,big,VS,O,107,J03,445.318359375
2,1,0,27068,2.134765625,0.1796875,5,0,13,68,8,1308.81030273438,574.357055664062,0,1,objects,big,0,1,objects,A,big,VS,O,107,J03,445.318359375
0,1,0,27069,2.36328125,0.24609375,6,0,12,67,9,1270.419921875,474.998962402344,0,1,faces,female,0,1,objects,A,big,VS,O,107,J03,445.318359375
0,1,0,27072,3.0625,0.201171875,7,0,2,13,12,693.718200683594,455.332214355469,0,1,faces,male,0,1,objects,A,big,VS,O,107,J03,445.318359375
2,1,1,27074,3.578125,0.14453125,8,0,7,41,14,1007.79034423828,490.468536376953,0,1,faces,female,0,1,objects,A,big,VS,O,107,J03,445.318359375
0,1,0,27096,0.474609375,0.15234375,1,1,3,14,3,708.517517089844,490.399200439453,0,1,faces,male,0,1,faces,A,male,EX,I,108,J03,449.517578125
1,1,0,27100,2.2890625,0.220703125,2,1,10,51,7,1066.74133300781,609.354309082031,0,1,faces,female,0,1,faces,A,male,EX,I,108,J03,449.517578125
0,1,0,27101,2.55078125,0.251953125,3,1,14,79,8,1367.60485839844,729.9697265625,0,1,faces,male,0,1,faces,A,male,EX,I,108,J03,449.517578125
0,1,0,27102,2.861328125,0.15234375,4,1,12,63,9,1113.45861816406,925.011901855469,0,1,objects,big,0,1,faces,A,male,EX,I,108,J03,449.517578125
2,1,0,27108,3.71484375,0.142578125,5,0,10,51,15,1018.37738037109,597.689514160156,0,1,faces,female,0,1,faces,A,male,EX,I,108,J03,449.517578125
0,1,0,27139,1.857421875,0.29296875,1,1,11,69,8,1268.01953125,615.080139160156,0,1,objects,big,0,1,objects,A,big,EX,O,109,J03,453.716796875
0,1,1,27142,2.44140625,0.10546875,2,1,12,71,11,1288.18615722656,799.944396972656,0,1,faces,female,0,1,objects,A,big,EX,O,109,J03,453.716796875
0,1,1,27145,2.7421875,0.15234375,3,1,13,72,14,1302.91125488281,905.510925292969,0,1,faces,male,0,1,objects,A,big,EX,O,109,J03,453.716796875
0,1,1,27147,3.146484375,0.12890625,4,1,15,80,16,1397.60461425781,810.265625,0,1,faces,female,0,1,objects,A,big,EX,O,109,J03,453.716796875
0,1,0,27149,3.71484375,0.1171875,5,0,6,41,18,988.752990722656,518.022888183594,0,1,faces,male,0,1,objects,A,big,EX,O,109,J03,453.716796875
0,1,0,27162,0.22265625,0.134765625,1,1,9,48,1,1057.44555664062,381.407470703125,1,0,NaN,NaN,1,0,faces,P,male,VS,F,110,J03,457.916015625
0,1,0,27167,0.978515625,0.126953125,2,1,4,24,6,728.763122558594,591.007446289062,0,1,objects,big,1,0,faces,P,male,VS,F,110,J03,457.916015625
1,1,1,27169,1.458984375,0.15234375,3,1,14,69,8,1210.67553710938,598.067810058594,0,1,faces,male,1,0,faces,P,male,VS,F,110,J03,457.916015625
0,1,0,27174,2.365234375,0.171875,4,1,10,55,13,1130.0615234375,90.8543548583984,0,1,faces,female,1,0,faces,P,male,VS,F,110,J03,457.916015625
0,1,0,27179,3.451171875,0.216796875,5,0,15,77,18,1371.28784179688,500.611938476562,0,1,faces,female,1,0,faces,P,male,VS,F,110,J03,457.916015625
2,1,0,27180,3.6953125,0.37890625,6,0,14,69,19,1281.53833007812,604.116882324219,0,1,faces,male,1,0,faces,P,male,VS,F,110,J03,457.916015625
0,1,0,27202,0.4296875,0.130859375,1,1,1,6,3,527.720520019531,634.838500976562,0,1,faces,female,0,1,objects,A,small,EX,O,111,J03,462.115234375
0,1,0,27211,2.50390625,0.15234375,2,1,10,48,12,1102.97521972656,300.338806152344,0,1,faces,female,0,1,objects,A,small,EX,O,111,J03,462.115234375
0,1,0,27239,1.73046875,0.1796875,1,1,6,32,8,816.050598144531,589.329162597656,1,0,NaN,NaN,1,1,objects,P,big,VS,O,112,J03,466.314453125
0,1,0,27241,2.087890625,0.123046875,2,1,9,38,10,977.161987304688,249.139694213867,0,1,faces,male,1,1,objects,P,big,VS,O,112,J03,466.314453125
0,1,0,27270,1.599609375,0.2109375,1,1,14,73,4,1365.61413574219,145.848526000977,0,1,faces,male,0,1,faces,A,male,EX,F,113,J03,470.513671875
0,1,0,27271,1.86328125,0.123046875,2,1,3,11,5,656.827575683594,211.013458251953,0,1,objects,big,0,1,faces,A,male,EX,F,113,J03,470.513671875
0,1,1,27279,3.84375,0.212890625,3,1,7,51,13,1078.17114257812,643.820983886719,0,1,objects,big,0,1,faces,A,male,EX,F,113,J03,470.513671875
0,1,0,27320,2.392578125,0.251953125,1,1,12,65,14,1291.91259765625,257.043365478516,0,1,faces,female,0,1,faces,P,male,VS,I,114,J03,474.712890625
0,1,0,27421,3.89453125,0.345703125,1,1,9,57,10,1167.05627441406,368.833648681641,0,1,faces,female,0,1,faces,P,female,VS,F,117,J03,487.310546875
0,1,1,27453,2.39453125,0.197265625,1,1,13,60,4,1179.31640625,596.773620605469,0,1,faces,male,0,1,faces,P,female,VS,F,118,J03,491.509765625
0,1,0,27507,0.091796875,0.19140625,1,1,9,48,1,1065.98583984375,348.619812011719,0,1,faces,female,0,1,faces,P,male,VS,I,120,J03,499.908203125
0,1,1,27508,0.314453125,0.119140625,2,1,11,56,2,1110.87158203125,272.513793945312,0,1,faces,male,0,1,faces,P,male,VS,I,120,J03,499.908203125
0,1,0,27539,0.4453125,0.19921875,1,1,11,51,2,1101.28149414062,600.485900878906,0,1,faces,male,1,1,faces,P,female,VS,I,121,J03,504.107421875
0,1,0,27540,0.68359375,0.173828125,2,1,10,43,3,983.150634765625,724.189086914062,0,1,faces,male,1,1,faces,P,female,VS,I,121,J03,504.107421875
0,1,0,27542,1.13671875,0.142578125,3,1,4,13,5,627.715515136719,428.541748046875,0,1,faces,male,1,1,faces,P,female,VS,I,121,J03,504.107421875
0,0,1,27544,1.416015625,2.255859375,4,1,3,12,7,648.903564453125,351.334350585938,1,0,NaN,NaN,1,1,faces,P,female,VS,I,121,J03,504.107421875
1,1,0,27561,0.619140625,0.123046875,1,1,9,38,4,967.963989257812,199.199584960938,0,1,faces,male,0,1,faces,A,female,EX,F,122,J03,508.306640625
0,1,0,27562,0.76953125,0.140625,2,1,12,46,5,1058.69470214844,135.686965942383,0,1,faces,male,0,1,faces,A,female,EX,F,122,J03,508.306640625
0,1,1,27563,0.982421875,0.123046875,3,1,11,42,6,979.0517578125,610.136108398438,0,1,faces,female,0,1,faces,A,female,EX,F,122,J03,508.306640625
0,1,1,27565,1.544921875,0.28125,4,1,10,39,8,974.101684570312,354.493530273438,0,1,objects,small,0,1,faces,A,female,EX,F,122,J03,508.306640625
2,1,0,27567,2.041015625,0.33984375,5,0,9,38,10,963.973937988281,249.459732055664,0,1,faces,male,0,1,faces,A,female,EX,F,122,J03,508.306640625
0,1,1,27568,2.43359375,0.109375,6,0,8,31,11,812.524353027344,465.179290771484,0,1,faces,female,0,1,faces,A,female,EX,F,122,J03,508.306640625
0,1,1,27570,2.896484375,0.11328125,7,0,3,16,13,681.549011230469,699.016418457031,0,1,faces,female,0,1,faces,A,female,EX,F,122,J03,508.306640625
0,1,1,27572,3.369140625,0.138671875,8,0,4,18,15,636.672729492188,905.130615234375,0,1,faces,male,0,1,faces,A,female,EX,F,122,J03,508.306640625
0,1,0,27574,3.826171875,0.267578125,9,0,6,26,17,743.267578125,852.489868164062,0,1,faces,female,0,1,faces,A,female,EX,F,122,J03,508.306640625
0,1,1,27583,0.353515625,0.16796875,1,1,7,39,2,993.02490234375,370.767303466797,0,1,faces,male,0,1,faces,A,male,EX,F,123,J03,512.505859375
0,1,0,27585,0.771484375,0.224609375,2,1,9,48,4,1086.13012695312,347.732513427734,0,1,faces,female,0,1,faces,A,male,EX,F,123,J03,512.505859375
0,1,1,27586,1.025390625,0.146484375,3,1,11,66,5,1236.83569335938,350.431488037109,0,1,objects,small,0,1,faces,A,male,EX,F,123,J03,512.505859375
0,1,1,27588,1.447265625,0.314453125,4,1,10,57,7,1182.17370605469,349.065277099609,0,1,objects,small,0,1,faces,A,male,EX,F,123,J03,512.505859375
0,1,0,27591,3.0390625,0.3046875,5,0,14,74,10,1376.40661621094,236.969055175781,0,1,faces,female,0,1,faces,A,male,EX,F,123,J03,512.505859375
0,1,1,27592,3.3828125,0.158203125,6,0,6,29,11,903.042724609375,234.331481933594,0,1,faces,female,0,1,faces,A,male,EX,F,123,J03,512.505859375
0,1,1,27594,3.78515625,0.177734375,7,0,3,22,13,764.531616210938,433.820495605469,0,1,faces,female,0,1,faces,A,male,EX,F,123,J03,512.505859375
0,1,0,27605,0.275390625,0.2734375,1,1,5,30,2,843.528503417969,357.953704833984,0,1,faces,male,1,1,faces,P,female,VS,I,124,J03,516.705078125
0,1,0,27606,0.59375,0.130859375,2,1,2,12,3,665.264221191406,358.335205078125,0,1,faces,male,1,1,faces,P,female,VS,I,124,J03,516.705078125
1,1,1,27607,0.76171875,0.1484375,3,1,7,42,4,940.161682128906,636.742919921875,1,0,NaN,NaN,1,1,faces,P,female,VS,I,124,J03,516.705078125
0,1,0,27609,1.1171875,0.14453125,4,1,13,70,6,1301.55432128906,744.165344238281,0,1,faces,male,1,1,faces,P,female,VS,I,124,J03,516.705078125
2,1,1,27610,1.306640625,0.125,5,0,7,42,7,1009.21551513672,676.696472167969,1,0,NaN,NaN,1,1,faces,P,female,VS,I,124,J03,516.705078125
0,0,0,27613,2.294921875,0.34765625,6,0,12,67,10,1266.61364746094,477.85986328125,0,1,faces,male,1,1,faces,P,female,VS,I,124,J03,516.705078125
3,0,1,27614,2.6953125,0.171875,7,0,7,42,11,946.819763183594,681.147766113281,1,0,NaN,NaN,1,1,faces,P,female,VS,I,124,J03,516.705078125
0,1,1,27628,0.240234375,0.1875,1,1,8,42,1,989.371520996094,678.780578613281,0,1,faces,male,1,0,faces,P,female,VS,F,125,J03,520.904296875
0,1,1,27630,0.669921875,0.212890625,2,1,5,21,3,750.0087890625,320.189971923828,0,1,faces,female,1,0,faces,P,female,VS,F,125,J03,520.904296875
0,1,0,27632,1.00390625,0.150390625,3,1,6,22,5,741.457214355469,444.13525390625,0,1,faces,female,1,0,faces,P,female,VS,F,125,J03,520.904296875
