refix,pretarget,multifix,urevent,tonset,dur_added,rank,first_rank,stposrel,stposabs,n,x,y,istarget,isdistractor,distractor_cat,ditractor_atr,trial_targetseen,trial_correct,trial_cat,trial_resp,trial_atr,trial_type,trial_cattype,trial_number,trial_subject,trial_bgn_latency
0,1,0,17148,0.3359375,0.9140625,1,1,8,40,1,946.32861328125,432.369110107422,0,1,faces,male,1,0,faces,P,male,VS,I,1,J08,0.201171875
1,1,0,17150,1.529296875,0.267578125,2,1,2,5,3,555.281494140625,565.507019042969,0,1,faces,female,1,0,faces,P,male,VS,I,1,J08,0.201171875
2,1,1,17152,2.021484375,0.13671875,3,1,2,5,5,531.170959472656,575.762268066406,0,1,faces,female,1,0,faces,P,male,VS,I,1,J08,0.201171875
0,0,0,17154,3.4609375,0.296875,4,1,3,17,7,609.602600097656,852.596923828125,1,0,NaN,NaN,1,0,faces,P,male,VS,I,1,J08,0.201171875
3,0,0,17156,3.97265625,0.42578125,5,0,2,5,9,544.302185058594,568.732727050781,0,1,faces,female,1,0,faces,P,male,VS,I,1,J08,0.201171875
0,1,0,17167,0.232421875,0.173828125,1,1,1,3,1,557.776977539062,344.957550048828,0,1,objects,small,1,0,faces,P,female,VS,F,2,J08,4.400390625
0,1,0,17170,0.740234375,0.20703125,2,1,4,29,4,845.426452636719,232.322799682617,0,1,faces,female,1,0,faces,P,female,VS,F,2,J08,4.400390625
1,1,0,17172,1.169921875,0.224609375,3,1,10,56,6,1185.27416992188,240.601379394531,0,1,faces,male,1,0,faces,P,female,VS,F,2,J08,4.400390625
0,1,0,17174,1.513671875,0.146484375,4,1,11,64,8,1266.60546875,154.126098632812,0,1,objects,small,1,0,faces,P,female,VS,F,2,J08,4.400390625
2,1,0,17175,1.67578125,0.263671875,5,0,10,56,9,1164.76550292969,253.485824584961,0,1,faces,male,1,0,faces,P,female,VS,F,2,J08,4.400390625
0,1,0,17176,1.970703125,0.228515625,6,0,8,48,10,1051.37158203125,352.163726806641,0,1,faces,female,1,0,faces,P,female,VS,F,2,J08,4.400390625
1,1,0,17178,2.431640625,0.185546875,7,0,14,72,12,1255.51220703125,942.467956542969,0,1,faces,male,1,0,faces,P,female,VS,F,2,J08,4.400390625
0,1,0,17179,2.6328125,0.353515625,8,0,15,81,13,1353.07446289062,960.899536132812,0,1,faces,female,1,0,faces,P,female,VS,F,2,J08,4.400390625
2,1,0,17180,3.015625,0.23828125,9,0,14,72,14,1233.41809082031,953.177001953125,0,1,faces,male,1,0,faces,P,female,VS,F,2,J08,4.400390625
0,0,0,17182,3.482421875,2.16796875,10,0,3,26,16,722.011596679688,849.98974609375,1,0,NaN,NaN,1,0,faces,P,female,VS,F,2,J08,4.400390625
0,1,0,17189,0.240234375,0.373046875,1,1,4,31,1,876.067504882812,449.163726806641,0,1,faces,male,0,1,faces,A,female,VS,I,3,J08,8.599609375
0,1,0,17190,0.65234375,0.224609375,2,1,9,56,2,1192.96179199219,284.183502197266,0,1,objects,small,0,1,faces,A,female,VS,I,3,J08,8.599609375
0,1,0,17191,0.947265625,0.345703125,3,1,12,73,3,1317.65478515625,169.607635498047,0,1,faces,male,0,1,faces,A,female,VS,I,3,J08,8.599609375
0,1,0,17192,1.341796875,0.33984375,4,1,14,79,4,1335.68627929688,783.751708984375,0,1,faces,male,0,1,faces,A,female,VS,I,3,J08,8.599609375
1,1,0,17194,1.900390625,0.611328125,5,0,5,35,6,840.925598144531,830.535217285156,0,1,faces,female,0,1,faces,A,female,VS,I,3,J08,8.599609375
0,1,0,17195,2.54296875,0.326171875,6,0,3,16,7,613.751037597656,764.543151855469,0,1,faces,female,0,1,faces,A,female,VS,I,3,J08,8.599609375
2,1,0,17197,3.369140625,1.09765625,7,0,5,35,9,838.475952148438,840.776672363281,0,1,faces,female,0,1,faces,A,female,VS,I,3,J08,8.599609375
0,1,0,17204,0.19921875,0.1796875,1,1,9,42,1,914.296813964844,609.698791503906,0,1,objects,small,1,0,objects,P,small,VS,O,4,J08,12.798828125
0,1,0,17205,0.412109375,0.298828125,2,1,5,30,2,879.143920898438,320.190002441406,0,1,faces,female,1,0,objects,P,small,VS,O,4,J08,12.798828125
0,1,0,17206,0.76953125,0.1640625,3,1,4,25,3,742.458190917969,742.50048828125,0,1,faces,female,1,0,objects,P,small,VS,O,4,J08,12.798828125
0,1,0,17207,0.95703125,0.212890625,4,1,7,36,4,904.745544433594,951.587707519531,0,1,faces,female,1,0,objects,P,small,VS,O,4,J08,12.798828125
1,0,0,17208,1.1796875,0.5546875,5,0,10,45,5,933.692138671875,919.950744628906,1,0,NaN,NaN,1,0,objects,P,small,VS,O,4,J08,12.798828125
0,0,0,17210,2.654296875,0.267578125,6,0,15,81,7,1330.80456542969,927.294799804688,0,1,faces,female,1,0,objects,P,small,VS,O,4,J08,12.798828125
2,0,1,17211,2.986328125,0.193359375,7,0,10,45,8,970.654357910156,907.127136230469,1,0,NaN,NaN,1,0,objects,P,small,VS,O,4,J08,12.798828125
0,1,0,17223,0.42578125,0.16796875,1,1,7,30,2,859.362731933594,339.136901855469,0,1,faces,female,1,0,faces,P,male,VS,F,5,J08,16.998046875
0,1,0,17224,0.619140625,0.19140625,2,1,12,57,3,1134.77575683594,363.250946044922,0,1,objects,big,1,0,faces,P,male,VS,F,5,J08,16.998046875
0,1,0,17225,0.873046875,0.154296875,3,1,5,22,4,767.680297851562,450.490020751953,1,0,NaN,NaN,1,0,faces,P,male,VS,F,5,J08,16.998046875
0,1,0,17226,1.046875,0.173828125,4,1,4,21,5,800.106201171875,311.672637939453,0,1,objects,big,1,0,faces,P,male,VS,F,5,J08,16.998046875
0,1,0,17234,0.216796875,0.2421875,1,1,11,69,1,1277.31701660156,647.039794921875,0,1,objects,small,1,0,faces,P,male,VS,I,6,J08,21.197265625
0,0,0,17235,0.474609375,0.322265625,2,1,15,79,2,1352.22668457031,703.54296875,1,0,NaN,NaN,1,0,faces,P,male,VS,I,6,J08,21.197265625
0,0,0,17236,0.8125,0.162109375,3,1,14,78,3,1353.39172363281,610.247375488281,0,1,faces,male,1,0,faces,P,male,VS,I,6,J08,21.197265625
0,0,0,17239,1.322265625,0.216796875,4,1,5,37,6,972.624877929688,134.725311279297,0,1,faces,female,1,0,faces,P,male,VS,I,6,J08,21.197265625
0,0,0,17241,1.7265625,0.19921875,5,0,1,4,8,550.463623046875,471.806884765625,0,1,faces,male,1,0,faces,P,male,VS,I,6,J08,21.197265625
1,0,0,17243,2.14453125,0.189453125,6,0,3,16,10,620.627319335938,755.787292480469,0,1,faces,male,1,0,faces,P,male,VS,I,6,J08,21.197265625
0,0,0,17244,2.353515625,0.677734375,7,0,2,6,11,550.897583007812,680.910278320312,0,1,faces,female,1,0,faces,P,male,VS,I,6,J08,21.197265625
2,0,0,17245,3.05078125,0.283203125,8,0,3,16,12,660.0498046875,763.202514648438,0,1,faces,male,1,0,faces,P,male,VS,I,6,J08,21.197265625
0,0,0,17246,3.396484375,0.208984375,9,0,7,54,13,1015.71160888672,917.020324707031,0,1,objects,big,1,0,faces,P,male,VS,I,6,J08,21.197265625
0,0,0,17247,3.625,0.29296875,10,0,12,71,14,1268.27856445312,835.325805664062,0,1,objects,big,1,0,faces,P,male,VS,I,6,J08,21.197265625
0,1,0,17258,0.634765625,0.318359375,1,1,1,8,3,518.377014160156,862.536804199219,0,1,objects,small,0,0,faces,A,female,EX,I,7,J08,25.396484375
1,1,0,17260,1.171875,0.228515625,2,1,8,30,5,847.299255371094,307.102661132812,0,1,faces,female,0,0,faces,A,female,EX,I,7,J08,25.396484375
0,1,0,17261,1.42578125,0.291015625,3,1,4,19,6,752.973327636719,127.192588806152,0,1,faces,male,0,0,faces,A,female,EX,I,7,J08,25.396484375
0,1,0,17262,1.732421875,0.22265625,4,1,7,28,7,848.225280761719,117.482353210449,0,1,faces,male,0,0,faces,A,female,EX,I,7,J08,25.396484375
1,1,0,17263,1.990234375,0.298828125,5,0,13,55,8,1191.75610351562,157.565826416016,0,1,faces,female,0,0,faces,A,female,EX,I,7,J08,25.396484375
0,1,0,17264,2.30859375,0.216796875,6,0,15,74,9,1331.76025390625,192.00666809082,0,1,faces,male,0,0,faces,A,female,EX,I,7,J08,25.396484375
2,1,0,17265,2.546875,0.458984375,7,0,13,55,10,1123.48327636719,156.498245239258,0,1,faces,female,0,0,faces,A,female,EX,I,7,J08,25.396484375
2,1,0,17266,3.03125,0.296875,8,0,8,30,11,839.002197265625,376.835632324219,0,1,faces,female,0,0,faces,A,female,EX,I,7,J08,25.396484375
0,1,0,17267,3.384765625,0.25,9,0,3,13,12,635.982299804688,460.525299072266,0,1,faces,female,0,0,faces,A,female,EX,I,7,J08,25.396484375
0,1,0,17268,3.650390625,0.2890625,10,0,5,23,13,741.422485351562,535.627014160156,0,1,objects,big,0,0,faces,A,female,EX,I,7,J08,25.396484375
0,1,0,17269,3.95703125,0.47265625,11,0,9,31,14,875.437377929688,407.639770507812,0,1,objects,small,0,0,faces,A,female,EX,I,7,J08,25.396484375
1,1,0,17278,0.3984375,0.173828125,1,1,10,38,2,922.747802734375,240.149841308594,0,1,faces,male,0,0,faces,A,female,EX,F,8,J08,29.595703125
0,1,0,17279,0.60546875,0.21484375,2,1,8,31,3,836.359924316406,419.642517089844,0,1,objects,big,0,0,faces,A,female,EX,F,8,J08,29.595703125
2,1,0,17280,0.841796875,0.2734375,3,1,10,38,4,956.895446777344,236.063919067383,0,1,faces,male,0,0,faces,A,female,EX,F,8,J08,29.595703125
0,1,0,17281,1.15625,0.267578125,4,1,15,76,5,1326.11315917969,458.873077392578,0,1,objects,small,0,0,faces,A,female,EX,F,8,J08,29.595703125
0,1,0,17282,1.435546875,0.470703125,5,0,13,67,6,1252.70874023438,448.797027587891,0,1,faces,female,0,0,faces,A,female,EX,F,8,J08,29.595703125
0,1,1,17283,1.94140625,0.1640625,6,0,12,54,7,1081.5712890625,931.519165039062,0,1,faces,female,0,0,faces,A,female,EX,F,8,J08,29.595703125
0,1,0,17285,2.466796875,0.453125,7,0,7,27,9,716.57373046875,964.026794433594,0,1,faces,female,0,0,faces,A,female,EX,F,8,J08,29.595703125
0,1,0,17287,3.1640625,0.107421875,8,0,4,15,11,639.524230957031,632.420654296875,0,1,objects,big,0,0,faces,A,female,EX,F,8,J08,29.595703125
0,1,0,17288,3.2890625,0.443359375,9,0,1,5,12,546.452331542969,528.807006835938,0,1,faces,female,0,0,faces,A,female,EX,F,8,J08,29.595703125
0,1,0,17289,3.7578125,0.30078125,10,0,2,7,13,532.584594726562,779.974609375,0,1,faces,female,0,0,faces,A,female,EX,F,8,J08,29.595703125
0,1,0,17302,0.40625,0.185546875,1,1,5,12,2,686.885498046875,378.671081542969,0,1,objects,big,0,0,objects,A,small,EX,O,9,J08,33.794921875
0,1,0,17303,0.6015625,0.21875,2,1,7,21,3,722.919372558594,352.664306640625,0,1,faces,female,0,0,objects,A,small,EX,O,9,J08,33.794921875
0,1,0,17304,0.8515625,0.169921875,3,1,2,2,4,550.064514160156,207.381607055664,0,1,faces,male,0,0,objects,A,small,EX,O,9,J08,33.794921875
0,1,0,17305,1.03125,0.521484375,4,1,1,1,5,549.470764160156,150.875183105469,0,1,faces,female,0,0,objects,A,small,EX,O,9,J08,33.794921875
0,1,1,17306,1.591796875,0.2265625,5,0,3,5,6,544.412292480469,507.660949707031,0,1,faces,female,0,0,objects,A,small,EX,O,9,J08,33.794921875
0,1,0,17308,2.22265625,0.392578125,6,0,4,6,8,546.405700683594,650.383544921875,0,1,faces,female,0,0,objects,A,small,EX,O,9,J08,33.794921875
0,1,1,17309,2.650390625,0.18359375,7,0,8,33,9,886.555358886719,679.955444335938,0,1,objects,small,0,0,objects,A,small,EX,O,9,J08,33.794921875
0,1,0,17311,3.26171875,0.3828125,8,0,13,51,11,1075.68444824219,635.726684570312,0,1,objects,big,0,0,objects,A,small,EX,O,9,J08,33.794921875
0,1,0,17312,3.66796875,0.591796875,9,0,14,53,12,1055.48254394531,854.191833496094,0,1,faces,female,0,0,objects,A,small,EX,O,9,J08,33.794921875
0,1,0,17327,0.201171875,0.185546875,1,1,3,22,1,776.509704589844,419.911926269531,0,1,objects,big,0,0,faces,A,female,VS,F,10,J08,37.994140625
0,1,0,17329,0.505859375,0.150390625,2,1,7,46,3,1045.91821289062,160.557373046875,0,1,objects,small,0,0,faces,A,female,VS,F,10,J08,37.994140625
1,1,0,17330,0.6953125,0.18359375,3,1,13,75,4,1358.74096679688,387.614776611328,0,1,faces,male,0,0,faces,A,female,VS,F,10,J08,37.994140625
1,1,0,17331,0.890625,0.1640625,4,1,11,67,5,1304.38305664062,437.1298828125,0,1,faces,female,0,0,faces,A,female,VS,F,10,J08,37.994140625
0,1,0,17332,1.1171875,0.234375,5,0,9,53,6,1072.60461425781,824.212768554688,0,1,faces,male,0,0,faces,A,female,VS,F,10,J08,37.994140625
0,1,0,17333,1.3671875,0.263671875,6,0,6,43,7,985.877075195312,737.166625976562,0,1,faces,female,0,0,faces,A,female,VS,F,10,J08,37.994140625
0,1,0,17334,1.654296875,0.251953125,7,0,4,25,8,727.960815429688,751.314086914062,0,1,faces,female,0,0,faces,A,female,VS,F,10,J08,37.994140625
0,1,0,17335,1.935546875,0.16015625,8,0,2,16,9,644.090576171875,760.065307617188,0,1,faces,male,0,0,faces,A,female,VS,F,10,J08,37.994140625
0,1,0,17336,2.109375,0.185546875,9,0,1,15,10,654.717163085938,663.007507324219,0,1,faces,female,0,0,faces,A,female,VS,F,10,J08,37.994140625
0,1,0,17337,2.36328125,0.396484375,10,0,10,63,11,1166.58984375,968.909240722656,0,1,faces,female,0,0,faces,A,female,VS,F,10,J08,37.994140625
0,1,0,17338,2.779296875,0.236328125,11,0,15,81,12,1347.83703613281,954.5859375,0,1,objects,big,0,0,faces,A,female,VS,F,10,J08,37.994140625
2,1,0,17339,3.060546875,0.34375,12,0,13,75,13,1336.93054199219,373.435180664062,0,1,faces,male,0,0,faces,A,female,VS,F,10,J08,37.994140625
0,1,0,17340,3.421875,0.154296875,13,0,12,74,14,1349.92370605469,252.926818847656,0,1,faces,female,0,0,faces,A,female,VS,F,10,J08,37.994140625
2,1,0,17341,3.609375,0.65625,14,0,11,67,15,1253.95129394531,449.593292236328,0,1,faces,female,0,0,faces,A,female,VS,F,10,J08,37.994140625
0,1,0,17348,0.25390625,0.2421875,1,1,9,40,1,960.887145996094,394.706207275391,0,1,objects,big,0,0,objects,A,big,VS,O,11,J08,42.193359375
1,1,0,17350,0.70703125,0.197265625,2,1,1,6,3,547.427612304688,659.545104980469,0,1,faces,male,0,0,objects,A,big,VS,O,11,J08,42.193359375
0,1,0,17352,1.126953125,0.140625,3,1,10,41,5,969.450073242188,538.088562011719,0,1,faces,male,0,0,objects,A,big,VS,O,11,J08,42.193359375
0,1,0,17353,1.2890625,0.2265625,4,1,11,59,6,1195.89331054688,529.796447753906,0,1,objects,big,0,0,objects,A,big,VS,O,11,J08,42.193359375
0,1,0,17354,1.53125,0.3046875,5,0,13,68,7,1270.3046875,524.706359863281,0,1,objects,small,0,0,objects,A,big,VS,O,11,J08,42.193359375
0,1,0,17356,2.158203125,0.212890625,6,0,5,19,9,810.361694335938,132.582672119141,0,1,faces,male,0,0,objects,A,big,VS,O,11,J08,42.193359375
0,1,0,17357,3.009765625,0.115234375,7,0,15,81,10,1325.8779296875,936.090515136719,0,1,faces,female,0,0,objects,A,big,VS,O,11,J08,42.193359375
0,1,0,17358,3.193359375,0.2109375,8,0,7,34,11,812.211181640625,726.844909667969,0,1,objects,big,0,0,objects,A,big,VS,O,11,J08,42.193359375
0,1,0,17359,3.41796875,0.171875,9,0,6,33,12,845.612121582031,626.040771484375,0,1,objects,small,0,0,objects,A,big,VS,O,11,J08,42.193359375
0,1,0,17360,3.650390625,0.291015625,10,0,2,7,13,554.853149414062,755.306762695312,0,1,faces,male,0,0,objects,A,big,VS,O,11,J08,42.193359375
2,1,0,17361,3.955078125,0.294921875,11,0,1,6,14,537.736694335938,642.895263671875,0,1,faces,male,0,0,objects,A,big,VS,O,11,J08,42.193359375
0,1,0,17369,0.224609375,0.142578125,1,1,15,76,1,1318.11389160156,441.476989746094,0,1,faces,female,1,0,objects,P,small,VS,O,12,J08,46.392578125
0,1,0,17370,0.40234375,0.22265625,2,1,10,56,2,1154.31518554688,236.827026367188,0,1,faces,male,1,0,objects,P,small,VS,O,12,J08,46.392578125
0,1,0,17373,1.06640625,0.234375,3,1,14,73,5,1359.87475585938,174.057662963867,0,1,faces,male,1,0,objects,P,small,VS,O,12,J08,46.392578125
0,0,0,17375,1.591796875,2.923828125,4,1,6,36,7,828.145935058594,934.74755859375,1,0,NaN,NaN,1,0,objects,P,small,VS,O,12,J08,46.392578125
1,1,0,17385,0.216796875,0.19921875,1,1,7,42,1,961.717163085938,667.916809082031,0,1,objects,small,0,0,objects,P,big,VS,O,13,J08,50.591796875
0,1,0,17386,0.44140625,0.2109375,2,1,11,59,2,1162.3447265625,538.201904296875,0,1,faces,male,0,0,objects,P,big,VS,O,13,J08,50.591796875
0,1,0,17387,0.693359375,0.341796875,3,1,4,20,3,735.290832519531,225.764801025391,0,1,faces,female,0,0,objects,P,big,VS,O,13,J08,50.591796875
0,1,1,17388,1.0859375,0.16015625,4,1,3,18,4,610.999328613281,944.971252441406,0,1,faces,male,0,0,objects,P,big,VS,O,13,J08,50.591796875
0,1,0,17391,1.6015625,0.2578125,5,0,12,69,7,1266.79443359375,593.665100097656,0,1,faces,female,0,0,objects,P,big,VS,O,13,J08,50.591796875
0,1,0,17392,1.876953125,0.1484375,6,0,15,78,8,1369.86450195312,636.510681152344,0,1,objects,big,0,0,objects,P,big,VS,O,13,J08,50.591796875
0,1,0,17394,2.251953125,0.1796875,7,0,10,57,10,1160.31225585938,310.006896972656,0,1,objects,small,0,0,objects,P,big,VS,O,13,J08,50.591796875
0,1,0,17395,2.505859375,0.279296875,8,0,2,12,11,647.999877929688,329.335815429688,0,1,faces,female,0,0,objects,P,big,VS,O,13,J08,50.591796875
0,1,0,17396,3.69140625,0.177734375,9,0,5,36,12,826.648071289062,959.292846679688,0,1,faces,female,0,0,objects,P,big,VS,O,13,J08,50.591796875
2,1,0,17397,3.890625,0.740234375,10,0,7,42,13,951.642639160156,690.395812988281,0,1,objects,small,0,0,objects,P,big,VS,O,13,J08,50.591796875
1,1,0,17406,0.43359375,0.173828125,1,1,7,29,2,900.798461914062,216.064987182617,0,1,objects,small,0,0,faces,A,male,EX,I,14,J08,54.791015625
0,1,0,17407,0.626953125,0.34765625,2,1,9,47,3,1091.71142578125,216.367904663086,0,1,objects,big,0,0,faces,A,male,EX,I,14,J08,54.791015625
2,1,0,17408,1.03515625,0.2421875,3,1,7,29,4,831.311584472656,241.424438476562,0,1,objects,small,0,0,faces,A,male,EX,I,14,J08,54.791015625
0,1,0,17409,1.314453125,0.279296875,4,1,1,1,5,581.864990234375,162.175201416016,0,1,faces,male,0,0,faces,A,male,EX,I,14,J08,54.791015625
0,1,0,17411,1.841796875,0.203125,5,0,3,5,7,565.060668945312,564.203552246094,0,1,faces,female,0,0,faces,A,male,EX,I,14,J08,54.791015625
0,1,0,17412,2.060546875,0.23828125,6,0,4,14,8,647.293762207031,539.632995605469,0,1,faces,female,0,0,faces,A,male,EX,I,14,J08,54.791015625
0,1,0,17413,2.34375,0.265625,7,0,6,27,9,725.796020507812,963.404602050781,0,1,objects,big,0,0,faces,A,male,EX,I,14,J08,54.791015625
0,1,0,17414,2.677734375,0.138671875,8,0,12,63,10,1206.73095703125,898.836242675781,0,1,objects,small,0,0,faces,A,male,EX,I,14,J08,54.791015625
0,1,0,17415,2.830078125,0.189453125,9,0,13,71,11,1266.78466796875,822.025939941406,0,1,faces,female,0,0,faces,A,male,EX,I,14,J08,54.791015625
0,1,0,17417,3.23828125,0.216796875,10,0,14,73,13,1345.875,168.985397338867,0,1,faces,male,0,0,faces,A,male,EX,I,14,J08,54.791015625
0,1,0,17418,3.474609375,0.3515625,11,0,15,75,14,1317.25378417969,351.550231933594,0,1,faces,male,0,0,faces,A,male,EX,I,14,J08,54.791015625
0,1,0,17428,0.2578125,0.17578125,1,1,3,23,1,793.352600097656,512.863342285156,0,1,faces,male,0,0,faces,A,male,VS,I,15,J08,58.990234375
0,1,0,17429,0.4453125,0.162109375,2,1,5,32,2,838.206726074219,532.759826660156,0,1,faces,male,0,0,faces,A,male,VS,I,15,J08,58.990234375
0,1,0,17430,0.646484375,0.234375,3,1,6,38,3,947.657592773438,239.378265380859,0,1,faces,female,0,0,faces,A,male,VS,I,15,J08,58.990234375
1,1,0,17431,0.9453125,0.125,4,1,1,2,4,516.385620117188,263.901794433594,0,1,faces,male,0,0,faces,A,male,VS,I,15,J08,58.990234375
0,1,0,17433,1.333984375,0.1171875,5,0,8,46,6,1056.98364257812,158.706268310547,0,1,faces,male,0,0,faces,A,male,VS,I,15,J08,58.990234375
2,1,0,17434,1.521484375,0.3828125,6,0,1,2,7,546.813598632812,277.142456054688,0,1,faces,male,0,0,faces,A,male,VS,I,15,J08,58.990234375
0,1,0,17435,1.9453125,0.220703125,7,0,4,28,8,878.220092773438,159.133590698242,0,1,faces,female,0,0,faces,A,male,VS,I,15,J08,58.990234375
1,1,0,17436,2.22265625,0.201171875,8,0,7,45,9,970.050598144531,958.948791503906,0,1,faces,male,0,0,faces,A,male,VS,I,15,J08,58.990234375
0,1,0,17437,2.4453125,0.1328125,9,0,11,53,10,1046.66296386719,862.926452636719,0,1,objects,small,0,0,faces,A,male,VS,I,15,J08,58.990234375
2,1,0,17438,2.609375,0.103515625,10,0,7,45,11,930.363342285156,974.476440429688,0,1,faces,male,0,0,faces,A,male,VS,I,15,J08,58.990234375
0,1,0,17439,2.73828125,0.26953125,11,0,14,72,12,1259.91418457031,965.561584472656,0,1,faces,male,0,0,faces,A,male,VS,I,15,J08,58.990234375
3,1,1,17440,3.037109375,0.890625,12,0,7,45,13,938.588134765625,966.401794433594,0,1,faces,male,0,0,faces,A,male,VS,I,15,J08,58.990234375
0,1,0,17454,0.693359375,0.20703125,1,1,5,30,3,856.596008300781,309.939636230469,0,1,faces,male,0,0,objects,A,big,EX,O,16,J08,63.189453125
0,1,0,17455,0.94140625,0.62890625,2,1,1,2,4,544.061950683594,248.078125,0,1,objects,big,0,0,objects,A,big,EX,O,16,J08,63.189453125
0,1,0,17457,1.8203125,0.23046875,3,1,12,64,6,1274.99279785156,167.22184753418,0,1,faces,female,0,0,objects,A,big,EX,O,16,J08,63.189453125
0,1,1,17458,2.078125,0.201171875,4,1,13,67,7,1281.6650390625,449.270263671875,0,1,objects,big,0,0,objects,A,big,EX,O,16,J08,63.189453125
0,1,0,17460,2.876953125,0.35546875,5,0,10,60,9,1176.25036621094,621.18310546875,0,1,faces,male,0,0,objects,A,big,EX,O,16,J08,63.189453125
0,1,0,17461,3.248046875,0.279296875,6,0,11,61,10,1177.51013183594,708.834228515625,0,1,faces,female,0,0,objects,A,big,EX,O,16,J08,63.189453125
0,1,0,17462,3.546875,0.3984375,7,0,7,44,11,979.438598632812,833.534606933594,0,1,objects,big,0,0,objects,A,big,EX,O,16,J08,63.189453125
0,1,0,17463,3.962890625,0.443359375,8,0,8,45,12,955.960083007812,944.908203125,0,1,faces,male,0,0,objects,A,big,EX,O,16,J08,63.189453125
0,1,0,17473,0.43359375,0.25,1,1,10,39,2,929.698547363281,384.973052978516,0,1,faces,female,1,0,faces,P,male,VS,F,17,J08,67.388671875
0,1,0,17474,0.697265625,0.1796875,2,1,8,31,3,846.080322265625,423.008819580078,0,1,faces,female,1,0,faces,P,male,VS,F,17,J08,67.388671875
0,1,0,17475,0.908203125,0.26953125,3,1,1,3,4,555.786926269531,366.049865722656,0,1,objects,big,1,0,faces,P,male,VS,F,17,J08,67.388671875
0,1,0,17476,1.2109375,0.28125,4,1,2,8,5,525.938537597656,881.045166015625,0,1,faces,male,1,0,faces,P,male,VS,F,17,J08,67.388671875
0,1,0,17477,1.51171875,0.310546875,5,0,5,16,6,633.447631835938,762.385009765625,0,1,faces,male,1,0,faces,P,male,VS,F,17,J08,67.388671875
1,1,0,17478,1.841796875,0.1796875,6,0,6,24,7,729.500183105469,645.346008300781,1,0,NaN,NaN,1,0,faces,P,male,VS,F,17,J08,67.388671875
0,1,0,17479,2.044921875,0.205078125,7,0,7,26,8,717.3857421875,879.251831054688,0,1,faces,male,1,0,faces,P,male,VS,F,17,J08,67.388671875
2,0,0,17480,2.271484375,2.12890625,8,0,6,24,9,720.433837890625,647.18017578125,1,0,NaN,NaN,1,0,faces,P,male,VS,F,17,J08,67.388671875
0,1,0,17483,0.20703125,0.30859375,1,1,14,60,1,1151.14477539062,639.405151367188,0,1,faces,female,0,0,faces,P,female,VS,I,18,J08,71.587890625
0,1,0,17484,0.537109375,0.208984375,2,1,12,50,2,1050.78210449219,501.289123535156,0,1,faces,male,0,0,faces,P,female,VS,I,18,J08,71.587890625
0,1,0,17485,0.765625,0.166015625,3,1,9,40,3,947.005126953125,438.171875,0,1,faces,female,0,0,faces,P,female,VS,I,18,J08,71.587890625
0,1,0,17486,0.9453125,0.28515625,4,1,10,41,4,968.771484375,505.824066162109,0,1,faces,female,0,0,faces,P,female,VS,I,18,J08,71.587890625
0,1,1,17487,1.265625,0.171875,5,0,8,38,5,1010.37164306641,204.983001708984,0,1,faces,male,0,0,faces,P,female,VS,I,18,J08,71.587890625
0,1,0,17490,1.98046875,0.2109375,6,0,1,3,8,529.178894042969,354.242034912109,0,1,faces,male,0,0,faces,P,female,VS,I,18,J08,71.587890625
1,1,0,17492,2.423828125,0.162109375,7,0,4,27,10,735.82373046875,987.319458007812,0,1,faces,male,0,0,faces,P,female,VS,I,18,J08,71.587890625
0,1,0,17493,2.603515625,0.2421875,8,0,7,35,11,843.861206054688,859.636108398438,0,1,faces,male,0,0,faces,P,female,VS,I,18,J08,71.587890625
2,1,0,17494,2.875,0.625,9,0,4,27,12,736.027587890625,974.260925292969,0,1,faces,male,0,0,faces,P,female,VS,I,18,J08,71.587890625
0,1,0,17505,0.4140625,0.22265625,1,1,14,75,2,1339.57580566406,352.008026123047,0,1,faces,female,0,0,faces,A,male,VS,F,19,J08,75.787109375
0,1,0,17507,0.8671875,0.171875,2,1,10,50,4,1061.646484375,512.478454589844,0,1,faces,male,0,0,faces,A,male,VS,F,19,J08,75.787109375
1,1,0,17508,1.0859375,0.263671875,3,1,4,11,5,675.826171875,230.287704467773,0,1,faces,female,0,0,faces,A,male,VS,F,19,J08,75.787109375
1,1,0,17509,1.400390625,0.240234375,4,1,2,4,6,561.5224609375,428.629241943359,0,1,faces,female,0,0,faces,A,male,VS,F,19,J08,75.787109375
2,1,1,17510,1.658203125,0.142578125,5,0,4,11,7,613.063171386719,268.899871826172,0,1,faces,female,0,0,faces,A,male,VS,F,19,J08,75.787109375
0,1,0,17512,2.013671875,0.27734375,6,0,8,37,9,925.290710449219,171.092681884766,0,1,faces,male,0,0,faces,A,male,VS,F,19,J08,75.787109375
0,1,0,17513,2.357421875,0.341796875,7,0,3,5,10,550.592468261719,553.391662597656,0,1,faces,male,0,0,faces,A,male,VS,F,19,J08,75.787109375
0,1,0,17515,2.9140625,0.16796875,8,0,6,26,12,720.705322265625,875.803405761719,0,1,faces,male,0,0,faces,A,male,VS,F,19,J08,75.787109375
0,1,1,17517,3.228515625,0.19140625,9,0,13,63,14,1166.05249023438,962.98388671875,0,1,objects,small,0,0,faces,A,male,VS,F,19,J08,75.787109375
2,1,0,17519,3.62109375,0.2421875,10,0,2,4,16,543.352172851562,444.781555175781,0,1,faces,female,0,0,faces,A,male,VS,F,19,J08,75.787109375
0,1,0,17520,3.890625,0.125,11,0,5,14,17,676.874145507812,575.470581054688,0,1,objects,big,0,0,faces,A,male,VS,F,19,J08,75.787109375
0,1,0,17523,0.208984375,0.15625,1,1,4,24,1,753.358154296875,667.117065429688,0,1,faces,male,0,0,objects,A,small,VS,O,20,J08,79.986328125
0,1,0,17525,0.564453125,0.283203125,2,1,5,30,3,889.935119628906,314.538726806641,0,1,objects,small,0,0,objects,A,small,VS,O,20,J08,79.986328125
0,1,1,17526,0.8828125,0.193359375,3,1,15,78,4,1311.22253417969,596.636352539062,0,1,faces,male,0,0,objects,A,small,VS,O,20,J08,79.986328125
0,1,0,17528,1.248046875,0.13671875,4,1,14,67,6,1240.18395996094,411.998474121094,0,1,faces,male,0,0,objects,A,small,VS,O,20,J08,79.986328125
0,1,0,17530,1.634765625,0.21875,5,0,6,40,8,938.034790039062,425.457275390625,0,1,faces,female,0,0,objects,A,small,VS,O,20,J08,79.986328125
0,1,0,17532,2.125,0.26171875,6,0,2,9,10,592.745910644531,903.929931640625,0,1,objects,big,0,0,objects,A,small,VS,O,20,J08,79.986328125
0,1,0,17534,2.64453125,0.220703125,7,0,10,52,12,1063.22473144531,756.302551269531,0,1,faces,female,0,0,objects,A,small,VS,O,20,J08,79.986328125
0,1,0,17535,3.359375,0.138671875,8,0,7,41,13,935.157775878906,523.448303222656,0,1,objects,big,0,0,objects,A,small,VS,O,20,J08,79.986328125
0,1,0,17536,3.564453125,0.19921875,9,0,1,5,14,538.929382324219,525.600036621094,0,1,objects,small,0,0,objects,A,small,VS,O,20,J08,79.986328125
0,1,0,17538,3.978515625,0.14453125,10,0,8,46,16,1039.72424316406,148.697723388672,0,1,faces,female,0,0,objects,A,small,VS,O,20,J08,79.986328125
0,1,1,17545,0.44921875,0.25390625,1,1,1,1,2,599.518493652344,183.202514648438,0,1,faces,male,0,0,faces,A,male,EX,F,21,J08,84.185546875
0,1,0,17547,1.072265625,0.291015625,2,1,3,10,4,679.723999023438,139.804321289062,0,1,objects,big,0,0,faces,A,male,EX,F,21,J08,84.185546875
0,1,0,17548,1.41015625,0.353515625,3,1,7,55,5,1161.93676757812,154.839813232422,0,1,faces,female,0,0,faces,A,male,EX,F,21,J08,84.185546875
0,1,0,17549,1.8125,0.2734375,4,1,13,75,6,1343.88330078125,361.335479736328,0,1,faces,male,0,0,faces,A,male,EX,F,21,J08,84.185546875
0,1,0,17550,2.158203125,0.19140625,5,0,12,72,7,1255.01708984375,918.512268066406,0,1,objects,big,0,0,faces,A,male,EX,F,21,J08,84.185546875
0,1,0,17551,2.3671875,0.228515625,6,0,15,81,8,1378.26892089844,977.846130371094,0,1,faces,male,0,0,faces,A,male,EX,F,21,J08,84.185546875
0,1,0,17552,2.666015625,1.181640625,7,0,5,36,9,840.440307617188,955.934387207031,0,1,objects,small,0,0,faces,A,male,EX,F,21,J08,84.185546875
0,1,0,17553,3.88671875,0.5,8,0,4,32,10,865.638244628906,550.956176757812,0,1,faces,female,0,0,faces,A,male,EX,F,21,J08,84.185546875
0,1,1,17559,0.21875,0.173828125,1,1,8,48,1,1107.87878417969,351.673675537109,0,1,faces,female,1,0,faces,P,male,VS,F,22,J08,88.384765625
0,1,0,17561,0.642578125,0.232421875,2,1,6,31,3,816.717407226562,422.737548828125,0,1,faces,female,1,0,faces,P,male,VS,F,22,J08,88.384765625
0,1,0,17562,0.919921875,0.224609375,3,1,1,1,4,540.359924316406,140.919845581055,0,1,objects,small,1,0,faces,P,male,VS,F,22,J08,88.384765625
0,0,0,17564,1.3046875,3.3828125,4,1,4,23,6,740.541259765625,538.280151367188,1,0,NaN,NaN,1,0,faces,P,male,VS,F,22,J08,88.384765625
0,1,0,17572,0.23046875,0.212890625,1,1,7,32,1,838.579467773438,556.911499023438,0,1,objects,small,0,0,faces,P,female,VS,I,23,J08,92.583984375
0,1,0,17573,0.48046875,0.10546875,2,1,5,14,2,641.277893066406,520.672058105469,0,1,faces,female,0,0,faces,P,female,VS,I,23,J08,92.583984375
0,1,0,17574,0.619140625,0.259765625,3,1,2,3,3,527.957397460938,337.033203125,0,1,objects,big,0,0,faces,P,female,VS,I,23,J08,92.583984375
0,1,0,17575,0.904296875,0.14453125,4,1,1,2,4,539.384948730469,226.585357666016,0,1,faces,male,0,0,faces,P,female,VS,I,23,J08,92.583984375
0,1,0,17576,1.115234375,0.21875,5,0,9,39,5,954.638305664062,316.814605712891,0,1,faces,female,0,0,faces,P,female,VS,I,23,J08,92.583984375
0,1,0,17577,1.3671875,0.208984375,6,0,13,58,6,1203.61706542969,421.405364990234,0,1,faces,male,0,0,faces,P,female,VS,I,23,J08,92.583984375
0,1,0,17578,1.603515625,0.162109375,7,0,14,67,7,1257.6826171875,443.013275146484,0,1,faces,female,0,0,faces,P,female,VS,I,23,J08,92.583984375
0,1,0,17580,2.041015625,0.171875,8,0,8,37,9,911.459594726562,138.829727172852,0,1,objects,big,0,0,faces,P,female,VS,I,23,J08,92.583984375
0,1,0,17582,2.373046875,0.2578125,9,0,3,4,11,557.137756347656,393.200653076172,0,1,faces,female,0,0,faces,P,female,VS,I,23,J08,92.583984375
0,1,1,17588,0.396484375,0.232421875,1,1,1,12,2,705.880920410156,354.579345703125,0,1,objects,small,0,1,objects,A,big,EX,O,24,J08,96.783203125
0,1,0,17590,1.001953125,0.318359375,2,1,3,19,4,724.84326171875,146.244369506836,0,1,faces,female,0,1,objects,A,big,EX,O,24,J08,96.783203125
0,1,0,17591,1.353515625,0.20703125,3,1,6,23,5,799.070983886719,555.453857421875,0,1,faces,female,0,1,objects,A,big,EX,O,24,J08,96.783203125
0,1,0,17592,1.572265625,0.294921875,4,1,9,32,6,851.816040039062,565.879821777344,0,1,objects,big,0,1,objects,A,big,EX,O,24,J08,96.783203125
0,1,0,17598,3.458984375,0.287109375,5,0,11,55,12,1172.96533203125,137.523284912109,0,1,faces,female,0,1,objects,A,big,EX,O,24,J08,96.783203125
0,1,0,17599,3.767578125,0.4140625,6,0,14,73,13,1367.48498535156,161.282943725586,0,1,faces,female,0,1,objects,A,big,EX,O,24,J08,96.783203125
0,1,0,17613,1.1171875,0.353515625,1,1,12,55,5,1171.07165527344,178.745986938477,0,1,faces,male,0,1,faces,A,male,VS,I,25,J08,100.982421875
0,1,0,17614,1.5078125,0.25,2,1,8,37,6,965.557250976562,186.215606689453,0,1,faces,male,0,1,faces,A,male,VS,I,25,J08,100.982421875
0,1,0,17615,1.814453125,0.220703125,3,1,4,21,7,737.282165527344,329.626403808594,0,1,objects,big,0,1,faces,A,male,VS,I,25,J08,100.982421875
0,1,0,17616,2.060546875,0.142578125,4,1,1,2,8,528.229675292969,274.709777832031,0,1,faces,female,0,1,faces,A,male,VS,I,25,J08,100.982421875
0,1,1,17617,2.26171875,0.1640625,5,0,9,38,9,944.995056152344,287.944580078125,0,1,faces,male,0,1,faces,A,male,VS,I,25,J08,100.982421875
0,1,0,17619,2.65625,0.560546875,6,0,3,13,11,649.485717773438,468.607574462891,0,1,faces,female,0,1,faces,A,male,VS,I,25,J08,100.982421875
1,1,0,17634,0.82421875,0.19140625,1,1,1,3,4,542.28369140625,382.904846191406,1,0,NaN,NaN,1,1,faces,P,male,VS,I,26,J08,105.181640625
1,1,0,17635,1.03515625,0.201171875,2,1,4,20,5,710.661193847656,277.838775634766,0,1,faces,female,1,1,faces,P,male,VS,I,26,J08,105.181640625
2,0,0,17636,1.275390625,0.728515625,3,1,1,3,6,544.480712890625,376.875457763672,1,0,NaN,NaN,1,1,faces,P,male,VS,I,26,J08,105.181640625
2,0,0,17637,2.029296875,0.25390625,4,1,4,20,7,747.678161621094,285.885284423828,0,1,faces,female,1,1,faces,P,male,VS,I,26,J08,105.181640625
0,1,0,17649,1.732421875,0.2421875,1,1,14,80,5,1349.98010253906,869.050170898438,0,1,faces,male,1,1,faces,P,female,VS,F,27,J08,109.380859375
0,1,0,17651,2.154296875,0.263671875,2,1,12,74,7,1326.49206542969,220.059844970703,0,1,faces,male,1,1,faces,P,female,VS,F,27,J08,109.380859375
0,0,0,17654,2.861328125,1.9921875,3,1,3,19,10,758.88818359375,171.357757568359,1,0,NaN,NaN,1,1,faces,P,female,VS,F,27,J08,109.380859375
0,1,0,17663,0.822265625,0.28125,1,1,12,60,4,1178.77795410156,665.066101074219,0,1,objects,small,1,1,faces,P,male,VS,F,28,J08,113.580078125
0,1,1,17664,1.154296875,0.107421875,2,1,11,52,5,1011.90606689453,747.74365234375,0,1,faces,male,1,1,faces,P,male,VS,F,28,J08,113.580078125
0,1,0,17666,1.578125,0.220703125,3,1,10,31,7,852.713562011719,487.334655761719,0,1,objects,small,1,1,faces,P,male,VS,F,28,J08,113.580078125
0,1,0,17667,1.822265625,0.193359375,4,1,7,21,8,728.295776367188,336.759582519531,0,1,faces,female,1,1,faces,P,male,VS,F,28,J08,113.580078125
0,1,0,17668,2.03515625,0.24609375,5,0,6,19,9,759.008422851562,157.086120605469,0,1,faces,female,1,1,faces,P,male,VS,F,28,J08,113.580078125
0,0,0,17669,2.306640625,1.78515625,6,0,1,1,10,535.20703125,171.206100463867,1,0,NaN,NaN,1,1,faces,P,male,VS,F,28,J08,113.580078125
0,1,0,17680,0.359375,0.177734375,1,1,2,3,2,537.7236328125,387.250183105469,0,1,objects,big,0,1,faces,A,male,EX,I,29,J08,117.779296875
0,1,0,17681,0.55859375,0.404296875,2,1,1,1,3,527.3583984375,177.788681030273,0,1,faces,female,0,1,faces,A,male,EX,I,29,J08,117.779296875
0,1,0,17682,0.990234375,0.1640625,3,1,3,11,4,647.55419921875,289.555114746094,0,1,faces,male,0,1,faces,A,male,EX,I,29,J08,117.779296875
0,1,0,17683,1.173828125,0.224609375,4,1,5,19,5,728.422119140625,158.216201782227,0,1,faces,female,0,1,faces,A,male,EX,I,29,J08,117.779296875
0,1,0,17684,1.423828125,0.2421875,5,0,7,37,6,952.837524414062,147.909332275391,0,1,faces,male,0,1,faces,A,male,EX,I,29,J08,117.779296875
0,1,0,17685,1.69921875,0.193359375,6,0,14,68,7,1277.63293457031,490.167694091797,0,1,faces,male,0,1,faces,A,male,EX,I,29,J08,117.779296875
0,1,0,17703,0.45703125,0.2734375,1,1,2,3,2,527.492553710938,299.118225097656,0,1,faces,male,1,0,faces,P,male,VS,I,30,J08,121.978515625
0,1,0,17709,1.552734375,0.265625,2,1,10,26,8,739.103088378906,822.369750976562,0,1,faces,female,1,0,faces,P,male,VS,I,30,J08,121.978515625
0,1,0,17711,2.06640625,0.181640625,3,1,13,61,10,1166.15319824219,704.172241210938,0,1,faces,female,1,0,faces,P,male,VS,I,30,J08,121.978515625
0,1,0,17712,2.26171875,0.212890625,4,1,12,59,11,1178.76525878906,590.365234375,0,1,faces,female,1,0,faces,P,male,VS,I,30,J08,121.978515625
0,1,0,17713,2.509765625,0.232421875,5,0,14,72,12,1228.23107910156,984.687133789062,0,1,faces,female,1,0,faces,P,male,VS,I,30,J08,121.978515625
0,1,0,17715,3.146484375,0.1328125,6,0,4,11,14,664.502807617188,284.539886474609,0,1,objects,small,1,0,faces,P,male,VS,I,30,J08,121.978515625
0,1,0,17716,3.306640625,0.26953125,7,0,6,20,15,729.601501464844,206.450836181641,0,1,objects,small,1,0,faces,P,male,VS,I,30,J08,121.978515625
0,0,0,17717,3.5859375,1.173828125,8,0,5,19,16,731.4970703125,178.503540039062,1,0,NaN,NaN,1,0,faces,P,male,VS,I,30,J08,121.978515625
0,1,0,17730,1.91796875,0.201171875,1,1,14,68,7,1218.85192871094,546.817749023438,0,1,faces,male,0,1,faces,A,female,EX,I,31,J08,126.177734375
0,1,0,17732,2.88671875,0.255859375,2,1,6,30,9,863.264099121094,309.927001953125,0,1,faces,female,0,1,faces,A,female,EX,I,31,J08,126.177734375
0,1,1,17733,3.169921875,0.30859375,3,1,7,31,10,909.13330078125,402.65380859375,0,1,faces,female,0,1,faces,A,female,EX,I,31,J08,126.177734375
1,1,0,17742,0.193359375,0.169921875,1,1,4,31,1,828.011291503906,443.173767089844,0,1,faces,male,0,1,objects,A,small,VS,O,32,J08,130.376953125
0,1,0,17743,0.3984375,0.236328125,2,1,7,37,2,935.366882324219,184.931335449219,0,1,faces,male,0,1,objects,A,small,VS,O,32,J08,130.376953125
0,1,0,17745,0.953125,0.1484375,3,1,11,50,4,1032.08605957031,576.57421875,0,1,objects,small,0,1,objects,A,small,VS,O,32,J08,130.376953125
0,1,0,17747,1.3125,0.15625,4,1,6,35,6,821.84423828125,842.317565917969,0,1,faces,female,0,1,objects,A,small,VS,O,32,J08,130.376953125
0,1,0,17751,2.095703125,0.240234375,5,0,14,75,10,1383.59790039062,367.553192138672,0,1,objects,big,0,1,objects,A,small,VS,O,32,J08,130.376953125
2,1,0,17752,2.400390625,0.140625,6,0,4,31,11,890.35546875,413.043701171875,0,1,faces,male,0,1,objects,A,small,VS,O,32,J08,130.376953125
3,1,0,17754,2.861328125,0.193359375,7,0,4,31,13,833.658386230469,449.143402099609,0,1,faces,male,0,1,objects,A,small,VS,O,32,J08,130.376953125
0,1,0,17756,3.373046875,0.294921875,8,0,10,49,15,1034.49145507812,474.178436279297,0,1,faces,female,0,1,objects,A,small,VS,O,32,J08,130.376953125
0,1,0,17767,0.462890625,0.119140625,1,1,1,3,2,580.884094238281,390.015441894531,0,1,faces,male,0,1,faces,A,female,VS,F,33,J08,134.576171875
0,1,0,17771,1.423828125,0.3125,2,1,13,66,6,1298.64868164062,357.21337890625,0,1,objects,big,0,1,faces,A,female,VS,F,33,J08,134.576171875
0,1,0,17772,1.75,0.232421875,3,1,15,75,7,1345.19665527344,312.281433105469,0,1,faces,female,0,1,faces,A,female,VS,F,33,J08,134.576171875
0,1,0,17774,2.318359375,0.205078125,4,1,12,55,9,1135.21203613281,185.620986938477,0,1,faces,female,0,1,faces,A,female,VS,F,33,J08,134.576171875
0,1,0,17786,0.474609375,0.24609375,1,1,7,23,2,733.294982910156,576.642883300781,0,1,objects,big,0,1,objects,A,small,EX,O,34,J08,138.775390625
0,1,0,17792,2.365234375,0.17578125,2,1,11,53,8,1086.76489257812,877.747192382812,0,1,objects,small,0,1,objects,A,small,EX,O,34,J08,138.775390625
0,1,0,17793,2.5546875,0.169921875,3,1,12,62,9,1189.65893554688,882.529907226562,0,1,objects,small,0,1,objects,A,small,EX,O,34,J08,138.775390625
0,1,0,17796,3.390625,0.318359375,4,1,15,80,12,1392.51904296875,793.706115722656,0,1,faces,male,0,1,objects,A,small,EX,O,34,J08,138.775390625
1,1,0,17807,0.25,0.138671875,1,1,10,42,1,944.842224121094,642.862976074219,0,1,objects,small,0,0,faces,P,male,VS,I,35,J08,142.974609375
0,1,0,17808,0.4296875,0.1875,2,1,6,30,2,824.947448730469,370.070068359375,0,1,objects,big,0,0,faces,P,male,VS,I,35,J08,142.974609375
0,1,0,17815,2.25390625,0.2421875,3,1,7,34,9,824.539672851562,781.655090332031,0,1,faces,male,0,0,faces,P,male,VS,I,35,J08,142.974609375
2,1,0,17816,2.513671875,0.23046875,4,1,10,42,10,935.4111328125,670.39501953125,0,1,objects,small,0,0,faces,P,male,VS,I,35,J08,142.974609375
0,1,0,17818,2.892578125,0.306640625,5,0,13,67,12,1278.51892089844,405.732391357422,0,1,faces,female,0,0,faces,P,male,VS,I,35,J08,142.974609375
0,1,0,17838,0.47265625,0.125,1,1,5,34,2,813.738891601562,756.558288574219,0,1,faces,female,0,0,faces,A,female,VS,I,37,J08,151.373046875
0,1,0,17841,1.408203125,0.36328125,2,1,4,29,5,858.491149902344,252.997772216797,0,1,faces,female,0,0,faces,A,female,VS,I,37,J08,151.373046875
0,1,0,17842,1.798828125,0.30078125,3,1,8,47,6,1035.47009277344,287.870574951172,0,1,faces,female,0,0,faces,A,female,VS,I,37,J08,151.373046875
0,1,0,17844,2.2421875,0.296875,4,1,10,53,8,1093.39392089844,863.69775390625,0,1,faces,male,0,0,faces,A,female,VS,I,37,J08,151.373046875
1,1,0,17855,0.20703125,0.162109375,1,1,7,32,1,819.239196777344,539.900146484375,0,1,faces,male,0,0,faces,A,male,EX,F,38,J08,155.572265625
0,1,0,17856,0.408203125,0.150390625,2,1,4,12,2,613.896057128906,339.8740234375,0,1,objects,small,0,0,faces,A,male,EX,F,38,J08,155.572265625
0,1,0,17857,0.580078125,0.484375,3,1,1,1,3,544.717834472656,184.113952636719,0,1,faces,male,0,0,faces,A,male,EX,F,38,J08,155.572265625
0,1,0,17858,1.099609375,0.158203125,4,1,3,5,4,582.532653808594,531.1396484375,0,1,objects,big,0,0,faces,A,male,EX,F,38,J08,155.572265625
2,1,0,17861,1.74609375,0.193359375,5,0,7,32,7,871.558532714844,586.894714355469,0,1,faces,male,0,0,faces,A,male,EX,F,38,J08,155.572265625
0,1,0,17863,2.296875,0.1171875,6,0,15,79,9,1377.15930175781,716.712097167969,0,1,objects,small,0,0,faces,A,male,EX,F,38,J08,155.572265625
0,1,0,17864,2.431640625,0.46875,7,0,14,77,10,1350.20202636719,586.709106445312,0,1,objects,big,0,0,faces,A,male,EX,F,38,J08,155.572265625
1,1,0,17879,0.947265625,0.197265625,1,1,14,76,4,1365.02099609375,406.093627929688,0,1,faces,female,0,0,faces,P,female,VS,I,39,J08,159.771484375
0,1,0,17881,1.37109375,0.267578125,2,1,4,24,6,718.190795898438,677.448791503906,0,1,faces,female,0,0,faces,P,female,VS,I,39,J08,159.771484375
2,1,0,17890,3.71484375,0.236328125,3,1,14,76,15,1360.99108886719,454.264404296875,0,1,faces,female,0,0,faces,P,female,VS,I,39,J08,159.771484375
0,1,0,17903,3.1484375,1.2890625,1,1,6,25,5,731.17236328125,720.163391113281,0,1,faces,male,0,1,objects,P,small,VS,O,40,J08,163.970703125
0,1,0,17913,0.208984375,0.19140625,1,1,6,22,1,760.101623535156,472.330322265625,0,1,objects,big,0,1,faces,A,male,VS,F,41,J08,168.169921875
0,1,0,17922,2.17578125,0.1328125,2,1,12,62,10,1146.44775390625,879.857788085938,0,1,faces,male,0,1,faces,A,male,VS,F,41,J08,168.169921875
0,1,0,17927,3.224609375,0.1875,3,1,4,15,15,673.676452636719,670.06494140625,0,1,faces,male,0,1,faces,A,male,VS,F,41,J08,168.169921875
1,1,0,17928,3.427734375,0.146484375,4,1,8,25,16,716.697998046875,730.632629394531,0,1,objects,small,0,1,faces,A,male,VS,F,41,J08,168.169921875
2,1,0,17930,3.83984375,0.416015625,5,0,8,25,18,723.550170898438,724.861511230469,0,1,objects,small,0,1,faces,A,male,VS,F,41,J08,168.169921875
0,1,0,17938,0.21484375,0.111328125,1,1,9,32,1,905.659240722656,562.194519042969,0,1,faces,male,0,1,objects,A,big,VS,O,42,J08,172.369140625
0,1,0,17942,1.021484375,0.283203125,2,1,7,25,5,715.907775878906,745.6689453125,0,1,faces,female,0,1,objects,A,big,VS,O,42,J08,172.369140625
0,1,0,17945,2.572265625,0.26171875,3,1,8,26,8,754.899108886719,821.925231933594,0,1,objects,small,0,1,objects,A,big,VS,O,42,J08,172.369140625
0,1,0,17947,3.43359375,0.16796875,4,1,6,23,10,769.583862304688,568.12890625,0,1,objects,small,0,1,objects,A,big,VS,O,42,J08,172.369140625
0,1,0,17953,0.427734375,0.17578125,1,1,7,47,2,1030.90954589844,246.296401977539,0,1,faces,female,0,1,objects,P,small,VS,O,43,J08,176.568359375
0,1,0,17957,1.66015625,0.298828125,2,1,13,71,6,1297.99987792969,877.212219238281,0,1,faces,female,0,1,objects,P,small,VS,O,43,J08,176.568359375
0,1,0,17958,1.98046875,0.134765625,3,1,9,53,7,1080.57495117188,876.664611816406,0,1,faces,male,0,1,objects,P,small,VS,O,43,J08,176.568359375
0,1,0,17971,0.212890625,0.125,1,1,9,32,1,811.433227539062,503.141510009766,0,1,faces,male,0,1,faces,P,female,VS,F,44,J08,180.767578125
0,1,0,17972,0.357421875,0.263671875,2,1,5,21,2,756.608520507812,324.076049804688,0,1,faces,female,0,1,faces,P,female,VS,F,44,J08,180.767578125
0,1,0,17973,0.640625,0.294921875,3,1,10,38,3,927.251770019531,280.898773193359,0,1,faces,male,0,1,faces,P,female,VS,F,44,J08,180.767578125
0,1,0,17974,0.958984375,0.240234375,4,1,6,22,4,718.279235839844,422.111694335938,0,1,faces,male,0,1,faces,P,female,VS,F,44,J08,180.767578125
0,1,0,17988,0.359375,0.2421875,1,1,7,38,2,988.870483398438,227.579284667969,0,1,faces,female,0,1,objects,P,big,VS,O,45,J08,184.966796875
0,1,0,18004,0.78515625,0.296875,1,1,3,10,3,623.50927734375,182.920455932617,0,1,faces,male,0,1,faces,P,female,VS,F,46,J08,189.166015625
1,1,0,18014,0.23046875,0.1640625,1,1,2,5,1,592.017272949219,532.847534179688,0,1,faces,female,0,0,faces,A,female,EX,F,47,J08,193.365234375
1,1,0,18015,0.41796875,0.177734375,2,1,5,12,2,651.019836425781,322.960510253906,0,1,faces,male,0,0,faces,A,female,EX,F,47,J08,193.365234375
0,1,0,18016,0.611328125,0.3359375,3,1,6,20,3,726.543395996094,278.591613769531,0,1,faces,female,0,0,faces,A,female,EX,F,47,J08,193.365234375
2,1,0,18025,3.47265625,0.197265625,4,1,2,5,12,514.800537109375,567.070922851562,0,1,faces,female,0,0,faces,A,female,EX,F,47,J08,193.365234375
0,1,0,18026,3.68359375,0.154296875,5,0,1,4,13,547.848327636719,452.1279296875,0,1,faces,female,0,0,faces,A,female,EX,F,47,J08,193.365234375
2,1,0,18027,3.853515625,0.5625,6,0,5,12,14,643.693908691406,379.876953125,0,1,faces,male,0,0,faces,A,female,EX,F,47,J08,193.365234375
1,1,0,18037,0.541015625,0.224609375,1,1,2,5,2,583.607116699219,506.498840332031,0,1,objects,big,0,1,faces,A,female,VS,F,48,J08,197.564453125
0,1,0,18038,0.837890625,0.18359375,2,1,12,58,3,1166.40307617188,477.063385009766,0,1,faces,male,0,1,faces,A,female,VS,F,48,J08,197.564453125
2,1,0,18039,1.09765625,0.234375,3,1,2,5,4,528.728759765625,580.673156738281,0,1,objects,big,0,1,faces,A,female,VS,F,48,J08,197.564453125
0,1,0,18041,1.521484375,0.220703125,4,1,3,7,6,532.252380371094,772.582214355469,0,1,faces,male,0,1,faces,A,female,VS,F,48,J08,197.564453125
0,1,1,18042,1.80859375,0.150390625,5,0,10,50,7,1064.25439453125,582.652526855469,0,1,faces,female,0,1,faces,A,female,VS,F,48,J08,197.564453125
0,1,0,18044,2.193359375,0.31640625,6,0,11,51,9,1058.34375,651.578491210938,0,1,faces,female,0,1,faces,A,female,VS,F,48,J08,197.564453125
0,1,0,18045,2.52734375,0.32421875,7,0,13,59,10,1194.76330566406,543.401794433594,0,1,faces,female,0,1,faces,A,female,VS,F,48,J08,197.564453125
0,1,0,18046,2.87890625,0.16015625,8,0,15,78,11,1376.13781738281,671.268371582031,0,1,faces,male,0,1,faces,A,female,VS,F,48,J08,197.564453125
0,1,0,18047,3.1171875,0.640625,9,0,6,11,12,682.887084960938,275.653289794922,0,1,faces,female,0,1,faces,A,female,VS,F,48,J08,197.564453125
1,1,1,18057,1.07421875,0.189453125,1,1,15,78,4,1397.13525390625,672.804626464844,1,0,NaN,NaN,1,1,objects,P,small,VS,O,49,J08,201.763671875
0,1,1,18059,1.5625,0.20703125,2,1,3,6,6,510.539184570312,617.47509765625,0,1,objects,small,1,1,objects,P,small,VS,O,49,J08,201.763671875
2,0,0,18061,1.953125,2.345703125,3,1,15,78,8,1354.42199707031,668.439758300781,1,0,NaN,NaN,1,1,objects,P,small,VS,O,49,J08,201.763671875
0,1,0,18070,0.19921875,0.3125,1,1,7,31,1,858.532104492188,471.219177246094,0,1,objects,big,0,1,faces,A,female,EX,I,50,J08,205.962890625
0,1,0,18071,0.564453125,0.169921875,2,1,5,16,2,656.023803710938,741.583801269531,0,1,faces,female,0,1,faces,A,female,EX,I,50,J08,205.962890625
0,1,0,18072,0.751953125,0.310546875,3,1,4,14,3,673.489196777344,559.822082519531,0,1,objects,big,0,1,faces,A,female,EX,I,50,J08,205.962890625
0,1,0,18073,1.76953125,0.396484375,4,1,12,50,4,1105.43432617188,570.31689453125,0,1,objects,small,0,1,faces,A,female,EX,I,50,J08,205.962890625
0,1,0,18074,3.1015625,0.171875,5,0,11,45,5,1000.6142578125,967.021728515625,0,1,faces,male,0,1,faces,A,female,EX,I,50,J08,205.962890625
0,1,0,18086,0.25,0.185546875,1,1,8,58,1,1134.36840820312,467.878356933594,0,1,faces,female,0,1,faces,P,female,VS,F,51,J08,210.162109375
0,1,0,18088,0.69140625,0.208984375,2,1,13,75,3,1404.38342285156,330.331329345703,0,1,faces,male,0,1,faces,P,female,VS,F,51,J08,210.162109375
0,1,0,18089,0.97265625,0.279296875,3,1,7,38,4,932.238220214844,268.212066650391,0,1,faces,female,0,1,faces,P,female,VS,F,51,J08,210.162109375
0,1,0,18090,1.291015625,0.3203125,4,1,12,74,5,1401.86218261719,250.005722045898,0,1,faces,male,0,1,faces,P,female,VS,F,51,J08,210.162109375
0,1,1,18091,1.79296875,0.4140625,5,0,2,11,6,701.277709960938,222.122268676758,0,1,faces,female,0,1,faces,P,female,VS,F,51,J08,210.162109375
0,1,0,18094,2.599609375,0.2421875,6,0,4,25,9,762.514770507812,788.112854003906,0,1,faces,female,0,1,faces,P,female,VS,F,51,J08,210.162109375
0,1,0,18096,2.9765625,0.25390625,7,0,10,62,11,1177.05102539062,882.002563476562,0,1,faces,male,0,1,faces,P,female,VS,F,51,J08,210.162109375
0,1,0,18097,3.25,0.21484375,8,0,15,80,12,1350.0068359375,888.59228515625,0,1,faces,female,0,1,faces,P,female,VS,F,51,J08,210.162109375
0,1,0,18106,0.23046875,0.318359375,1,1,10,40,1,970.677612304688,437.01318359375,0,1,objects,big,0,1,faces,A,female,EX,F,52,J08,214.361328125
0,1,0,18107,0.572265625,0.376953125,2,1,7,30,2,868.475219726562,320.412658691406,0,1,objects,big,0,1,faces,A,female,EX,F,52,J08,214.361328125
0,1,0,18108,1.61328125,0.26171875,3,1,5,26,3,753.44287109375,873.211547851562,0,1,faces,female,0,1,faces,A,female,EX,F,52,J08,214.361328125
0,1,0,18109,1.90234375,0.337890625,4,1,9,33,4,859.912048339844,662.062194824219,0,1,objects,small,0,1,faces,A,female,EX,F,52,J08,214.361328125
0,1,0,18110,2.26953125,0.318359375,5,0,11,43,5,944.179382324219,744.454711914062,0,1,faces,female,0,1,faces,A,female,EX,F,52,J08,214.361328125
0,1,0,18111,2.654296875,0.189453125,6,0,15,79,6,1368.70983886719,761.365417480469,0,1,faces,male,0,1,faces,A,female,EX,F,52,J08,214.361328125
0,1,0,18120,0.865234375,0.2265625,1,1,8,30,1,852.947021484375,323.766326904297,0,1,objects,big,0,0,faces,A,male,EX,F,53,J08,218.560546875
0,1,0,18122,1.322265625,0.228515625,2,1,13,58,3,1148.75134277344,435.531127929688,0,1,faces,male,0,0,faces,A,male,EX,F,53,J08,218.560546875
0,1,0,18123,1.59375,0.30078125,3,1,11,40,4,971.345764160156,420.9482421875,0,1,faces,female,0,0,faces,A,male,EX,F,53,J08,218.560546875
1,1,0,18125,2.294921875,0.3359375,4,1,2,8,6,544.444946289062,857.73583984375,0,1,objects,small,0,0,faces,A,male,EX,F,53,J08,218.560546875
1,1,0,18126,2.64453125,0.29296875,5,0,3,16,7,642.002868652344,744.636657714844,0,1,faces,female,0,0,faces,A,male,EX,F,53,J08,218.560546875
2,1,0,18127,2.97265625,0.154296875,6,0,2,8,8,536.359497070312,869.341247558594,0,1,objects,small,0,0,faces,A,male,EX,F,53,J08,218.560546875
2,1,0,18128,3.142578125,0.353515625,7,0,3,16,9,634.54736328125,773.408813476562,0,1,faces,female,0,0,faces,A,male,EX,F,53,J08,218.560546875
0,1,0,18129,3.5390625,0.41015625,8,0,14,62,10,1145.74243164062,864.962646484375,0,1,faces,female,0,0,faces,A,male,EX,F,53,J08,218.560546875
1,1,0,18137,0.216796875,0.25390625,1,1,1,5,1,581.525573730469,560.129943847656,0,1,faces,male,0,0,faces,A,male,VS,I,54,J08,222.759765625
0,1,0,18138,0.5078125,0.14453125,2,1,5,34,2,877.553405761719,786.128662109375,0,1,faces,male,0,0,faces,A,male,VS,I,54,J08,222.759765625
2,1,0,18139,0.716796875,3.115234375,3,1,1,5,3,557.08935546875,558.394409179688,0,1,faces,male,0,0,faces,A,male,VS,I,54,J08,222.759765625
1,1,0,18148,0.23828125,0.189453125,1,1,9,41,1,975.234313964844,518.335205078125,0,1,faces,male,0,1,objects,A,small,VS,O,55,J08,226.958984375
0,1,0,18152,1.080078125,0.423828125,2,1,13,73,5,1362.42163085938,181.230682373047,0,1,objects,big,0,1,objects,A,small,VS,O,55,J08,226.958984375
0,1,0,18154,1.904296875,0.25390625,3,1,6,33,7,837.094482421875,688.481994628906,0,1,objects,big,0,1,objects,A,small,VS,O,55,J08,226.958984375
2,1,0,18155,2.1796875,0.13671875,4,1,9,41,8,967.780151367188,529.643615722656,0,1,faces,male,0,1,objects,A,small,VS,O,55,J08,226.958984375
0,1,0,18156,2.376953125,0.23046875,5,0,15,79,9,1323.3369140625,782.258056640625,0,1,objects,small,0,1,objects,A,small,VS,O,55,J08,226.958984375
0,1,0,18159,3.0546875,0.138671875,6,0,2,4,12,596.1669921875,431.230499267578,0,1,faces,male,0,1,objects,A,small,VS,O,55,J08,226.958984375
0,1,0,18160,3.20703125,0.103515625,7,0,4,12,13,686.763427734375,379.155822753906,0,1,faces,male,0,1,objects,A,small,VS,O,55,J08,226.958984375
0,1,0,18161,3.3828125,0.265625,8,0,11,67,14,1310.13061523438,464.269439697266,0,1,objects,small,0,1,objects,A,small,VS,O,55,J08,226.958984375
0,1,0,18167,0.234375,0.2734375,1,1,9,44,1,964.528137207031,831.052917480469,0,1,faces,female,1,1,faces,P,female,VS,I,56,J08,231.158203125
0,1,0,18168,0.53515625,0.1484375,2,1,8,42,2,973.286193847656,671.487365722656,0,1,objects,big,1,1,faces,P,female,VS,I,56,J08,231.158203125
0,1,0,18169,0.708984375,0.228515625,3,1,6,24,3,751.224304199219,639.280334472656,0,1,faces,female,1,1,faces,P,female,VS,I,56,J08,231.158203125
0,1,0,18170,0.9609375,0.158203125,4,1,5,22,4,728.732299804688,419.083435058594,0,1,faces,male,1,1,faces,P,female,VS,I,56,J08,231.158203125
0,1,0,18171,1.17578125,0.244140625,5,0,1,6,5,537.025390625,651.784301757812,0,1,faces,female,1,1,faces,P,female,VS,I,56,J08,231.158203125
0,1,0,18173,1.728515625,0.23046875,6,0,12,56,7,1193.72790527344,250.197540283203,0,1,objects,small,1,1,faces,P,female,VS,I,56,J08,231.158203125
0,0,0,18175,2.171875,2.265625,7,0,2,7,9,532.135681152344,782.626647949219,1,0,NaN,NaN,1,1,faces,P,female,VS,I,56,J08,231.158203125
0,1,0,18185,0.4375,0.17578125,1,1,3,14,2,649.680786132812,542.638732910156,0,1,faces,male,1,1,faces,P,female,VS,I,57,J08,235.357421875
0,1,0,18186,0.630859375,0.177734375,2,1,5,21,3,718.765258789062,381.196472167969,0,1,faces,male,1,1,faces,P,female,VS,I,57,J08,235.357421875
0,1,0,18187,0.830078125,0.166015625,3,1,9,40,4,936.850891113281,488.038269042969,0,1,faces,male,1,1,faces,P,female,VS,I,57,J08,235.357421875
0,1,0,18188,1.056640625,0.1328125,4,1,1,6,5,602.370300292969,641.518005371094,0,1,faces,male,1,1,faces,P,female,VS,I,57,J08,235.357421875
0,0,0,18190,1.5390625,0.3046875,5,0,7,34,7,844.575134277344,708.232482910156,1,0,NaN,NaN,1,1,faces,P,female,VS,I,57,J08,235.357421875
0,0,0,18192,2.07421875,0.189453125,6,0,15,80,9,1336.56408691406,816.058044433594,0,1,objects,big,1,1,faces,P,female,VS,I,57,J08,235.357421875
0,1,0,18200,0.22265625,0.29296875,1,1,12,49,1,1030.849609375,442.217803955078,0,1,faces,male,0,1,objects,A,big,EX,O,58,J08,239.556640625
0,1,0,18201,0.544921875,0.1953125,2,1,6,22,2,772.934387207031,435.7822265625,0,1,objects,small,0,1,objects,A,big,EX,O,58,J08,239.556640625
0,1,0,18202,0.775390625,0.216796875,3,1,3,14,3,626.976623535156,568.343383789062,0,1,faces,male,0,1,objects,A,big,EX,O,58,J08,239.556640625
0,1,0,18203,1.03125,0.326171875,4,1,10,43,4,961.969848632812,760.281127929688,0,1,faces,male,0,1,objects,A,big,EX,O,58,J08,239.556640625
0,1,0,18205,1.724609375,0.41015625,5,0,15,72,6,1236.11804199219,989.090148925781,0,1,objects,big,0,1,objects,A,big,EX,O,58,J08,239.556640625
0,1,0,18207,2.37109375,0.16015625,6,0,14,64,8,1274.5380859375,143.722900390625,0,1,objects,big,0,1,objects,A,big,EX,O,58,J08,239.556640625
0,1,0,18210,3.37109375,0.33984375,7,0,9,38,11,941.091430664062,254.168060302734,0,1,faces,male,0,1,objects,A,big,EX,O,58,J08,239.556640625
1,1,0,18226,0.509765625,0.1640625,1,1,7,39,3,933.615905761719,324.649017333984,0,1,objects,small,0,1,objects,A,small,EX,O,59,J08,243.755859375
1,1,0,18227,0.703125,0.18359375,2,1,5,20,4,756.530639648438,204.744186401367,0,1,faces,female,0,1,objects,A,small,EX,O,59,J08,243.755859375
0,1,0,18228,0.955078125,0.306640625,3,1,10,56,5,1185.73217773438,268.520874023438,0,1,objects,small,0,1,objects,A,small,EX,O,59,J08,243.755859375
0,1,0,18229,1.28125,0.3359375,4,1,13,73,6,1371.62780761719,163.247940063477,0,1,faces,female,0,1,objects,A,small,EX,O,59,J08,243.755859375
2,1,0,18230,1.693359375,0.2734375,5,0,5,20,7,757.76806640625,213.119766235352,0,1,faces,female,0,1,objects,A,small,EX,O,59,J08,243.755859375
0,1,0,18232,2.28125,0.2265625,6,0,3,15,9,685.901550292969,661.72021484375,0,1,faces,male,0,1,objects,A,small,EX,O,59,J08,243.755859375
1,1,0,18233,2.53125,0.232421875,7,0,9,49,10,1018.84484863281,482.988006591797,0,1,faces,female,0,1,objects,A,small,EX,O,59,J08,243.755859375
0,1,0,18235,3.11328125,0.240234375,8,0,14,77,12,1398.775390625,569.643798828125,0,1,faces,male,0,1,objects,A,small,EX,O,59,J08,243.755859375
2,1,0,18236,3.3828125,0.1875,9,0,9,49,13,1102.51831054688,427.050018310547,0,1,faces,female,0,1,objects,A,small,EX,O,59,J08,243.755859375
2,1,0,18237,3.587890625,0.275390625,10,0,7,39,14,949.961242675781,372.344879150391,0,1,objects,small,0,1,objects,A,small,EX,O,59,J08,243.755859375
1,1,0,18247,0.244140625,0.2109375,1,1,9,32,1,857.283142089844,493.375854492188,0,1,faces,female,0,1,faces,P,male,VS,F,60,J08,247.955078125
0,1,0,18249,0.666015625,0.115234375,2,1,3,11,3,688.213439941406,273.744476318359,0,1,objects,big,0,1,faces,P,male,VS,F,60,J08,247.955078125
0,1,0,18251,1.138671875,0.189453125,3,1,7,22,5,761.855834960938,450.837188720703,0,1,faces,female,0,1,faces,P,male,VS,F,60,J08,247.955078125
0,1,0,18252,1.34765625,0.255859375,4,1,2,5,6,566.2060546875,580.605529785156,0,1,faces,female,0,1,faces,P,male,VS,F,60,J08,247.955078125
2,1,1,18253,1.625,0.27734375,5,0,9,32,7,820.48779296875,571.367065429688,0,1,faces,female,0,1,faces,P,male,VS,F,60,J08,247.955078125
0,1,0,18265,0.396484375,0.228515625,1,1,6,22,2,727.386596679688,473.058197021484,0,1,objects,small,0,1,faces,A,male,EX,I,61,J08,252.154296875
0,1,0,18266,1.607421875,0.28125,2,1,14,70,3,1260.40673828125,789.921997070312,0,1,faces,female,0,1,faces,A,male,EX,I,61,J08,252.154296875
0,1,0,18267,1.91015625,0.197265625,3,1,13,63,4,1122.8017578125,956.399597167969,0,1,faces,male,0,1,faces,A,male,EX,I,61,J08,252.154296875
0,1,0,18268,2.12890625,0.236328125,4,1,10,36,5,862.157043457031,923.115173339844,0,1,faces,female,0,1,faces,A,male,EX,I,61,J08,252.154296875
0,1,0,18269,2.38671875,0.28125,5,0,4,18,6,653.249633789062,974.529968261719,0,1,faces,male,0,1,faces,A,male,EX,I,61,J08,252.154296875
0,1,0,18270,2.703125,0.41796875,6,0,11,44,7,985.065368652344,870.047241210938,0,1,faces,female,0,1,faces,A,male,EX,I,61,J08,252.154296875
0,1,0,18273,3.74609375,0.576171875,7,0,7,29,10,834.133483886719,228.181198120117,0,1,faces,male,0,1,faces,A,male,EX,I,61,J08,252.154296875
0,1,0,18279,0.384765625,0.20703125,1,1,7,21,2,741.049621582031,309.316192626953,0,1,faces,male,0,1,faces,A,female,VS,I,62,J08,256.353515625
0,1,0,18280,0.62109375,0.20703125,2,1,1,1,3,565.071716308594,169.216857910156,0,1,faces,male,0,1,faces,A,female,VS,I,62,J08,256.353515625
0,1,0,18281,0.873046875,0.224609375,3,1,3,9,4,545.893188476562,897.021850585938,0,1,faces,male,0,1,faces,A,female,VS,I,62,J08,256.353515625
0,1,0,18283,1.291015625,0.22265625,4,1,8,34,6,836.163391113281,775.04296875,0,1,faces,female,0,1,faces,A,female,VS,I,62,J08,256.353515625
0,1,0,18284,1.541015625,0.609375,5,0,4,16,7,615.692626953125,766.37109375,0,1,faces,female,0,1,faces,A,female,VS,I,62,J08,256.353515625
0,1,0,18286,2.453125,0.1640625,6,0,12,63,9,1164.29406738281,987.852233886719,0,1,faces,female,0,1,faces,A,female,VS,I,62,J08,256.353515625
0,1,0,18290,3.53125,0.458984375,7,0,14,78,13,1355.99645996094,655.678405761719,0,1,faces,female,0,1,faces,A,female,VS,I,62,J08,256.353515625
0,1,0,18301,0.361328125,0.1328125,1,1,11,58,2,1181.13317871094,462.405517578125,0,1,objects,big,1,0,faces,P,female,VS,I,63,J08,260.552734375
1,1,0,18302,0.521484375,0.236328125,2,1,9,38,3,963.889770507812,266.817077636719,0,1,faces,male,1,0,faces,P,female,VS,I,63,J08,260.552734375
0,0,0,18303,0.8203125,0.49609375,3,1,13,68,4,1259.44482421875,547.861694335938,1,0,NaN,NaN,1,0,faces,P,female,VS,I,63,J08,260.552734375
0,0,0,18304,1.341796875,0.25,4,1,14,78,5,1351.3623046875,673.53125,0,1,faces,female,1,0,faces,P,female,VS,I,63,J08,260.552734375
0,0,0,18309,2.677734375,0.22265625,5,0,7,33,10,855.519714355469,680.163269042969,0,1,faces,male,1,0,faces,P,female,VS,I,63,J08,260.552734375
0,0,0,18312,3.470703125,0.322265625,6,0,6,21,13,741.891418457031,336.399017333984,0,1,faces,female,1,0,faces,P,female,VS,I,63,J08,260.552734375
2,0,0,18313,3.810546875,0.177734375,7,0,9,38,14,929.580688476562,251.640319824219,0,1,faces,male,1,0,faces,P,female,VS,I,63,J08,260.552734375
0,1,0,18323,0.5546875,0.271484375,1,1,1,2,3,579.134094238281,274.394439697266,0,1,faces,male,1,1,faces,P,female,VS,I,64,J08,264.751953125
0,1,0,18324,0.849609375,0.166015625,2,1,3,13,4,640.779663085938,456.426391601562,0,1,faces,female,1,1,faces,P,female,VS,I,64,J08,264.751953125
0,1,0,18325,1.033203125,0.3515625,3,1,5,20,5,766.140258789062,274.918090820312,0,1,faces,female,1,1,faces,P,female,VS,I,64,J08,264.751953125
0,1,0,18329,2.037109375,0.197265625,4,1,7,34,9,814.387817382812,722.423828125,0,1,objects,small,1,1,faces,P,female,VS,I,64,J08,264.751953125
0,0,0,18330,2.283203125,0.828125,5,0,14,77,10,1383.68798828125,549.507934570312,1,0,NaN,NaN,1,1,faces,P,female,VS,I,64,J08,264.751953125
1,1,0,18340,0.208984375,0.21484375,1,1,9,42,1,910.961669921875,614.482238769531,0,1,faces,female,0,0,objects,P,small,VS,O,65,J08,268.951171875
0,1,0,18341,0.44140625,0.193359375,2,1,12,50,2,1095.01733398438,504.361755371094,0,1,objects,small,0,0,objects,P,small,VS,O,65,J08,268.951171875
0,1,0,18342,0.67578125,0.265625,3,1,8,37,3,970.157836914062,137.749282836914,0,1,faces,female,0,0,objects,P,small,VS,O,65,J08,268.951171875
0,1,0,18344,1.1875,0.255859375,4,1,14,59,5,1178.00109863281,501.531188964844,0,1,objects,small,0,0,objects,P,small,VS,O,65,J08,268.951171875
0,1,0,18345,1.46875,0.146484375,5,0,11,48,6,1074.63696289062,326.498321533203,0,1,faces,female,0,0,objects,P,small,VS,O,65,J08,268.951171875
2,1,0,18346,2.19140625,0.328125,6,0,9,42,7,969.153564453125,628.76806640625,0,1,faces,female,0,0,objects,P,small,VS,O,65,J08,268.951171875
0,1,0,18354,0.408203125,0.25390625,1,1,6,29,2,858.659118652344,246.63330078125,0,1,faces,male,1,1,faces,P,female,VS,F,66,J08,273.150390625
0,1,0,18357,1.044921875,0.294921875,2,1,9,56,5,1146.50305175781,278.577545166016,0,1,faces,female,1,1,faces,P,female,VS,F,66,J08,273.150390625
0,1,0,18358,1.357421875,0.4375,3,1,10,57,6,1173.53637695312,355.049377441406,0,1,faces,male,1,1,faces,P,female,VS,F,66,J08,273.150390625
0,1,0,18360,2.232421875,0.205078125,4,1,8,40,8,935.30224609375,452.554382324219,0,1,objects,big,1,1,faces,P,female,VS,F,66,J08,273.150390625
0,1,0,18361,2.498046875,0.32421875,5,0,11,58,9,1190.08447265625,434.136138916016,0,1,objects,big,1,1,faces,P,female,VS,F,66,J08,273.150390625
0,1,0,18363,3.021484375,0.173828125,6,0,5,22,11,764.129577636719,480.880310058594,0,1,faces,female,1,1,faces,P,female,VS,F,66,J08,273.150390625
0,0,0,18366,3.892578125,0.22265625,7,0,12,72,14,1245.93725585938,986.564270019531,1,0,NaN,NaN,1,1,faces,P,female,VS,F,66,J08,273.150390625
1,1,0,18376,0.220703125,0.154296875,1,1,12,48,1,1012.06762695312,293.898498535156,0,1,faces,male,0,0,faces,A,male,VS,F,67,J08,277.349609375
0,1,0,18377,0.41015625,0.216796875,2,1,8,29,2,885.901306152344,285.066864013672,0,1,faces,male,0,0,faces,A,male,VS,F,67,J08,277.349609375
2,1,0,18378,0.6484375,0.158203125,3,1,12,48,3,1073.34912109375,359.855743408203,0,1,faces,male,0,0,faces,A,male,VS,F,67,J08,277.349609375
0,1,0,18384,0.216796875,0.376953125,1,1,4,29,1,836.001647949219,289.157806396484,0,1,faces,male,1,1,faces,P,male,VS,F,68,J08,281.548828125
0,1,0,18385,0.650390625,0.234375,2,1,11,48,2,1096.95520019531,337.933715820312,0,1,faces,male,1,1,faces,P,male,VS,F,68,J08,281.548828125
0,1,0,18389,1.583984375,0.259765625,3,1,6,33,6,866.5673828125,672.81591796875,0,1,objects,small,1,1,faces,P,male,VS,F,68,J08,281.548828125
0,1,0,18391,2.03125,0.10546875,4,1,10,45,8,939.076599121094,975.056701660156,0,1,faces,female,1,1,faces,P,male,VS,F,68,J08,281.548828125
0,0,0,18392,2.162109375,0.26171875,5,0,9,42,9,976.658569335938,677.551330566406,1,0,NaN,NaN,1,1,faces,P,male,VS,F,68,J08,281.548828125
0,0,0,18393,2.482421875,0.1015625,6,0,14,69,10,1272.23425292969,660.488159179688,0,1,faces,male,1,1,faces,P,male,VS,F,68,J08,281.548828125
0,1,0,18405,0.7109375,0.3046875,1,1,10,52,3,1058.64465332031,724.920349121094,0,1,objects,small,0,1,objects,A,big,VS,O,69,J08,285.748046875
0,1,0,18408,1.34375,0.228515625,2,1,15,71,6,1258.11108398438,862.929504394531,0,1,faces,male,0,1,objects,A,big,VS,O,69,J08,285.748046875
1,1,0,18409,1.6015625,0.12890625,3,1,13,63,7,1149.76000976562,949.545227050781,0,1,objects,small,0,1,objects,A,big,VS,O,69,J08,285.748046875
0,1,0,18410,1.80859375,0.220703125,4,1,2,5,8,530.854187011719,577.106201171875,0,1,faces,female,0,1,objects,A,big,VS,O,69,J08,285.748046875
0,1,0,18411,2.046875,0.2109375,5,0,1,4,9,574.198669433594,407.274383544922,0,1,objects,big,0,1,objects,A,big,VS,O,69,J08,285.748046875
0,1,0,18412,2.294921875,0.259765625,6,0,5,20,10,742.323303222656,226.12174987793,0,1,faces,female,0,1,objects,A,big,VS,O,69,J08,285.748046875
0,1,0,18414,2.794921875,0.103515625,7,0,14,68,12,1256.53698730469,570.75732421875,0,1,faces,male,0,1,objects,A,big,VS,O,69,J08,285.748046875
0,1,0,18416,3.1171875,0.1484375,8,0,8,36,14,827.459411621094,959.246704101562,0,1,faces,male,0,1,objects,A,big,VS,O,69,J08,285.748046875
2,1,0,18417,3.99609375,0.34375,9,0,13,63,15,1187.57629394531,982.345886230469,0,1,objects,small,0,1,objects,A,big,VS,O,69,J08,285.748046875
0,1,0,18427,0.373046875,0.171875,1,1,1,1,2,601.348510742188,158.373336791992,0,1,faces,male,1,1,objects,P,small,VS,O,70,J08,289.947265625
0,0,0,18428,0.568359375,2.1640625,2,1,2,3,3,558.222595214844,359.558410644531,1,0,NaN,NaN,1,1,objects,P,small,VS,O,70,J08,289.947265625
0,0,0,18429,2.759765625,0.876953125,3,1,6,23,4,750.231811523438,566.195983886719,0,1,faces,female,1,1,objects,P,small,VS,O,70,J08,289.947265625
0,1,0,18442,0.373046875,0.169921875,1,1,1,19,2,765.979431152344,152.80158996582,0,1,objects,small,1,1,objects,P,big,VS,O,71,J08,294.146484375
0,1,0,18443,0.619140625,0.265625,2,1,11,73,3,1313.98559570312,165.197143554688,0,1,objects,big,1,1,objects,P,big,VS,O,71,J08,294.146484375
0,1,0,18444,0.95703125,0.19140625,3,1,4,34,4,829.177551269531,713.60107421875,0,1,faces,female,1,1,objects,P,big,VS,O,71,J08,294.146484375
1,1,0,18445,1.1640625,0.142578125,4,1,3,33,5,885.595642089844,660.44580078125,1,0,NaN,NaN,1,1,objects,P,big,VS,O,71,J08,294.146484375
2,0,0,18447,1.521484375,3.13671875,5,0,3,33,7,852.062805175781,640.066955566406,1,0,NaN,NaN,1,1,objects,P,big,VS,O,71,J08,294.146484375
0,1,1,18550,0.443359375,0.138671875,1,1,4,11,2,676.673706054688,273.181274414062,0,1,faces,male,1,1,faces,P,female,VS,F,72,J08,298.345703125
0,1,0,18558,2.54296875,0.359375,2,1,9,44,10,909.680358886719,852.52392578125,0,1,faces,female,1,1,faces,P,female,VS,F,72,J08,298.345703125
0,0,0,18560,3.0625,1.416015625,3,1,6,23,12,711.669616699219,524.903381347656,1,0,NaN,NaN,1,1,faces,P,female,VS,F,72,J08,298.345703125
1,1,0,18566,0.431640625,0.18359375,1,1,5,32,2,834.503479003906,491.763885498047,0,1,objects,small,0,1,faces,A,female,EX,I,73,J08,302.544921875
0,1,0,18567,0.646484375,0.224609375,2,1,4,21,3,740.775085449219,295.479644775391,0,1,objects,small,0,1,faces,A,female,EX,I,73,J08,302.544921875
0,1,0,18568,0.9140625,0.220703125,3,1,14,68,4,1259.28332519531,495.294311523438,0,1,faces,female,0,1,faces,A,female,EX,I,73,J08,302.544921875
0,1,0,18569,1.1484375,0.337890625,4,1,15,77,5,1340.92236328125,523.604431152344,0,1,faces,male,0,1,faces,A,female,EX,I,73,J08,302.544921875
0,1,0,18570,1.5234375,0.24609375,5,0,10,44,6,964.39794921875,873.817810058594,0,1,faces,female,0,1,faces,A,female,EX,I,73,J08,302.544921875
0,1,0,18571,1.783203125,0.15234375,6,0,6,35,7,867.304565429688,884.087036132812,0,1,faces,female,0,1,faces,A,female,EX,I,73,J08,302.544921875
0,1,1,18572,1.96875,0.314453125,7,0,2,9,8,546.118041992188,964.5888671875,0,1,faces,female,0,1,faces,A,female,EX,I,73,J08,302.544921875
2,1,0,18575,2.98828125,1.02734375,8,0,5,32,11,894.819396972656,507.426391601562,0,1,objects,small,0,1,faces,A,female,EX,I,73,J08,302.544921875
0,1,0,18585,0.23828125,0.126953125,1,1,5,30,1,827.137390136719,339.122192382812,0,1,objects,small,0,1,faces,A,female,VS,F,74,J08,306.744140625
0,1,0,18591,1.78515625,0.181640625,2,1,15,81,7,1330.38659667969,987.193359375,0,1,faces,male,0,1,faces,A,female,VS,F,74,J08,306.744140625
0,1,0,18592,1.986328125,0.251953125,3,1,12,71,8,1221.10192871094,864.144775390625,0,1,faces,female,0,1,faces,A,female,VS,F,74,J08,306.744140625
0,1,1,18596,2.634765625,0.20703125,4,1,8,59,12,1173.40954589844,490.626922607422,0,1,faces,male,0,1,faces,A,female,VS,F,74,J08,306.744140625
0,1,0,18598,2.994140625,0.19921875,5,0,11,68,14,1232.34899902344,528.167175292969,0,1,faces,female,0,1,faces,A,female,VS,F,74,J08,306.744140625
0,1,0,18599,3.216796875,0.279296875,6,0,13,75,15,1336.46020507812,339.742553710938,0,1,faces,female,0,1,faces,A,female,VS,F,74,J08,306.744140625
0,1,0,18615,1.52734375,0.21875,1,1,1,15,5,697.952758789062,671.567932128906,0,1,faces,female,0,1,objects,A,small,VS,O,75,J08,310.943359375
0,1,0,18617,1.904296875,0.279296875,2,1,10,55,7,1130.60363769531,160.951995849609,0,1,faces,male,0,1,objects,A,small,VS,O,75,J08,310.943359375
0,1,0,18619,2.6328125,0.306640625,3,1,13,72,9,1259.13134765625,934.8427734375,0,1,objects,big,0,1,objects,A,small,VS,O,75,J08,310.943359375
0,1,0,18627,0.216796875,0.234375,1,1,6,32,1,813.334106445312,504.805084228516,0,1,objects,big,0,1,faces,A,male,EX,I,76,J08,315.142578125
0,1,0,18629,0.794921875,0.30859375,2,1,1,1,3,530.17431640625,161.564331054688,0,1,faces,male,0,1,faces,A,male,EX,I,76,J08,315.142578125
0,1,1,18631,1.494140625,0.177734375,3,1,13,68,5,1264.29125976562,557.560424804688,0,1,faces,female,0,1,faces,A,male,EX,I,76,J08,315.142578125
0,1,0,18639,3.427734375,0.16796875,4,1,11,64,13,1214.44653320312,120.336334228516,0,1,objects,small,0,1,faces,A,male,EX,I,76,J08,315.142578125
0,1,0,18640,3.642578125,0.25,5,0,4,19,14,719.847351074219,157.644393920898,0,1,faces,female,0,1,faces,A,male,EX,I,76,J08,315.142578125
0,1,0,18651,0.205078125,0.173828125,1,1,7,39,1,928.59521484375,292.999664306641,0,1,faces,female,0,0,objects,A,big,VS,O,77,J08,319.341796875
0,1,0,18656,1.083984375,0.353515625,2,1,5,35,6,867.771240234375,851.6416015625,0,1,objects,small,0,0,objects,A,big,VS,O,77,J08,319.341796875
0,1,0,18657,1.455078125,0.154296875,3,1,9,45,7,979.819519042969,924.703735351562,0,1,faces,female,0,0,objects,A,big,VS,O,77,J08,319.341796875
0,1,0,18658,1.658203125,0.234375,4,1,14,68,8,1231.15405273438,526.132934570312,0,1,objects,big,0,0,objects,A,big,VS,O,77,J08,319.341796875
0,1,0,18659,1.91796875,0.181640625,5,0,11,53,9,1049.87194824219,856.5576171875,0,1,faces,female,0,0,objects,A,big,VS,O,77,J08,319.341796875
0,1,0,18669,1.015625,0.2109375,1,1,12,64,4,1230.80578613281,135.073852539062,0,1,faces,female,0,1,faces,P,female,VS,F,78,J08,323.541015625
0,1,0,18671,1.484375,0.171875,2,1,13,71,6,1217.04138183594,868.056274414062,0,1,objects,big,0,1,faces,P,female,VS,F,78,J08,323.541015625
0,1,1,18672,1.689453125,0.216796875,3,1,8,43,7,950.946105957031,726.994506835938,0,1,faces,female,0,1,faces,P,female,VS,F,78,J08,323.541015625
0,0,0,18686,1.140625,3.58203125,1,1,11,44,5,919.129089355469,853.468200683594,1,0,NaN,NaN,1,1,objects,P,small,VS,O,79,J08,327.740234375
0,1,0,18692,0.5234375,0.177734375,1,1,4,16,2,624.726135253906,713.741271972656,1,0,NaN,NaN,1,1,objects,P,big,VS,O,80,J08,331.939453125
0,1,0,18702,0.380859375,0.171875,1,1,1,1,2,523.989013671875,157.183975219727,0,1,faces,female,1,0,faces,P,female,VS,F,81,J08,336.138671875
0,1,1,18703,0.595703125,0.185546875,2,1,6,38,3,912.425170898438,220.779586791992,0,1,faces,female,1,0,faces,P,female,VS,F,81,J08,336.138671875
0,1,0,18706,1.1796875,0.1875,3,1,13,74,6,1346.11926269531,286.094696044922,0,1,faces,male,1,0,faces,P,female,VS,F,81,J08,336.138671875
0,1,0,18707,1.380859375,0.251953125,4,1,14,75,7,1355.6484375,376.861907958984,0,1,faces,female,1,0,faces,P,female,VS,F,81,J08,336.138671875
0,1,0,18708,1.66015625,0.330078125,5,0,11,69,8,1269.03283691406,687.695556640625,0,1,faces,female,1,0,faces,P,female,VS,F,81,J08,336.138671875
0,1,0,18715,3.23828125,0.181640625,6,0,3,7,15,511.033111572266,783.065612792969,1,0,NaN,NaN,1,0,faces,P,female,VS,F,81,J08,336.138671875
0,1,0,18716,3.462890625,0.216796875,7,0,7,52,16,1068.19030761719,780.947937011719,0,1,objects,small,1,0,faces,P,female,VS,F,81,J08,336.138671875
0,1,0,18717,3.6953125,0.1640625,8,0,10,62,17,1175.29333496094,861.90576171875,0,1,objects,big,1,0,faces,P,female,VS,F,81,J08,336.138671875
0,1,0,18724,0.380859375,0.16015625,1,1,8,48,2,1046.77880859375,388.001281738281,0,1,faces,male,0,0,faces,P,male,VS,F,82,J08,340.337890625
0,1,0,18725,0.583984375,0.228515625,2,1,5,19,3,724.3720703125,162.799194335938,0,1,faces,female,0,0,faces,P,male,VS,F,82,J08,340.337890625
0,1,0,18726,0.853515625,0.20703125,3,1,1,1,4,539.323791503906,167.286315917969,0,1,faces,female,0,0,faces,P,male,VS,F,82,J08,340.337890625
0,1,0,18730,1.916015625,0.181640625,4,1,3,7,8,521.850891113281,721.294494628906,0,1,faces,male,0,0,faces,P,male,VS,F,82,J08,340.337890625
0,1,1,18733,2.748046875,0.271484375,5,0,10,52,11,1012.88006591797,788.7646484375,0,1,objects,small,0,0,faces,P,male,VS,F,82,J08,340.337890625
0,1,0,18737,3.607421875,0.13671875,6,0,13,59,15,1157.177734375,561.263977050781,0,1,faces,male,0,0,faces,P,male,VS,F,82,J08,340.337890625
0,1,0,18738,3.775390625,0.31640625,7,0,15,75,16,1313.27490234375,368.684783935547,0,1,faces,female,0,0,faces,P,male,VS,F,82,J08,340.337890625
0,1,0,18744,0.626953125,0.13671875,1,1,1,6,1,533.581848144531,687.859924316406,0,1,faces,male,0,1,faces,A,female,VS,I,83,J08,344.537109375
1,1,1,18747,2.193359375,0.15625,2,1,15,77,4,1376.72973632812,550.184692382812,0,1,faces,female,0,1,faces,A,female,VS,I,83,J08,344.537109375
2,1,0,18751,3.33203125,0.1953125,3,1,15,77,8,1321.34204101562,562.488220214844,0,1,faces,female,0,1,faces,A,female,VS,I,83,J08,344.537109375
0,1,0,18762,0.205078125,0.21875,1,1,4,38,1,937.45947265625,268.484466552734,0,1,faces,male,0,1,faces,A,male,EX,F,84,J08,348.736328125
1,1,0,18763,0.4609375,0.4765625,2,1,6,58,2,1190.94055175781,479.501647949219,0,1,faces,male,0,1,faces,A,male,EX,F,84,J08,348.736328125
0,1,0,18764,0.96875,0.23828125,3,1,10,69,3,1256.64392089844,615.689758300781,0,1,objects,big,0,1,faces,A,male,EX,F,84,J08,348.736328125
0,1,0,18765,1.228515625,0.353515625,4,1,5,51,4,1078.24548339844,632.115417480469,0,1,faces,female,0,1,faces,A,male,EX,F,84,J08,348.736328125
0,1,0,18766,1.615234375,0.474609375,5,0,13,72,5,1296.73571777344,896.388488769531,0,1,faces,female,0,1,faces,A,male,EX,F,84,J08,348.736328125
0,1,0,18770,2.732421875,0.32421875,6,0,1,4,9,546.526977539062,422.133178710938,0,1,faces,male,0,1,faces,A,male,EX,F,84,J08,348.736328125
2,1,0,18773,3.6171875,0.36328125,7,0,6,58,12,1156.49731445312,436.906341552734,0,1,faces,male,0,1,faces,A,male,EX,F,84,J08,348.736328125
1,1,0,18786,0.4296875,0.251953125,1,1,9,58,2,1153.14086914062,430.092620849609,0,1,faces,female,1,0,faces,P,female,VS,I,85,J08,352.935546875
0,1,0,18790,1.36328125,0.171875,2,1,5,35,6,843.829711914062,838.951416015625,0,1,faces,male,1,0,faces,P,female,VS,I,85,J08,352.935546875
0,1,0,18791,1.548828125,0.2265625,3,1,4,34,7,843.077697753906,757.559448242188,0,1,faces,female,1,0,faces,P,female,VS,I,85,J08,352.935546875
0,1,0,18793,2.025390625,0.232421875,4,1,13,72,9,1290.74841308594,895.633666992188,0,1,objects,big,1,0,faces,P,female,VS,I,85,J08,352.935546875
0,0,0,18794,2.279296875,0.287109375,5,0,11,61,10,1175.40173339844,743.605651855469,1,0,NaN,NaN,1,0,faces,P,female,VS,I,85,J08,352.935546875
0,0,0,18795,2.619140625,0.28125,6,0,1,2,11,535.390075683594,217.679718017578,0,1,objects,big,1,0,faces,P,female,VS,I,85,J08,352.935546875
0,0,0,18796,2.921875,0.197265625,7,0,2,21,12,767.574584960938,329.216156005859,0,1,objects,big,1,0,faces,P,female,VS,I,85,J08,352.935546875
0,0,0,18797,3.138671875,0.16015625,8,0,6,39,13,981.839172363281,345.711700439453,0,1,faces,male,1,0,faces,P,female,VS,I,85,J08,352.935546875
2,0,0,18798,3.3203125,0.470703125,9,0,9,58,14,1167.51232910156,459.854461669922,0,1,faces,female,1,0,faces,P,female,VS,I,85,J08,352.935546875
0,1,0,18808,0.705078125,0.193359375,1,1,1,6,3,575.334655761719,688.825439453125,0,1,faces,female,1,0,faces,P,male,VS,I,86,J08,357.134765625
0,1,0,18809,0.908203125,0.361328125,2,1,3,15,4,630.55029296875,669.692749023438,0,1,faces,male,1,0,faces,P,male,VS,I,86,J08,357.134765625
0,1,0,18810,1.3046875,0.11328125,3,1,5,24,5,740.570861816406,658.290588378906,0,1,faces,female,1,0,faces,P,male,VS,I,86,J08,357.134765625
1,1,0,18811,1.45703125,0.181640625,4,1,8,53,6,1105.59545898438,843.041320800781,0,1,faces,male,1,0,faces,P,male,VS,I,86,J08,357.134765625
0,1,0,18812,1.662109375,0.220703125,5,0,10,60,7,1164.90393066406,648.264221191406,0,1,faces,male,1,0,faces,P,male,VS,I,86,J08,357.134765625
0,0,0,18813,1.912109375,0.498046875,6,0,14,72,8,1263.56799316406,971.230102539062,1,0,NaN,NaN,1,0,faces,P,male,VS,I,86,J08,357.134765625
0,0,0,18814,2.455078125,0.109375,7,0,9,54,9,1080.30871582031,980.787780761719,0,1,faces,male,1,0,faces,P,male,VS,I,86,J08,357.134765625
2,0,0,18816,2.943359375,0.298828125,8,0,8,53,11,1020.39044189453,866.472839355469,0,1,faces,male,1,0,faces,P,male,VS,I,86,J08,357.134765625
3,0,0,18818,3.73046875,0.162109375,9,0,8,53,13,1030.84582519531,855.712829589844,0,1,faces,male,1,0,faces,P,male,VS,I,86,J08,357.134765625
0,1,1,18831,0.5390625,0.1484375,1,1,5,11,4,634.986450195312,190.808166503906,0,1,faces,female,0,1,faces,A,male,VS,I,87,J08,361.333984375
0,1,0,18833,0.966796875,0.287109375,2,1,4,10,6,629.987731933594,163.230377197266,0,1,faces,male,0,1,faces,A,male,VS,I,87,J08,361.333984375
0,1,1,18834,1.291015625,0.15234375,3,1,6,22,7,786.699340820312,446.740386962891,0,1,faces,female,0,1,faces,A,male,VS,I,87,J08,361.333984375
0,1,0,18836,1.6328125,0.3125,4,1,7,24,9,747.724792480469,629.715637207031,0,1,faces,female,0,1,faces,A,male,VS,I,87,J08,361.333984375
0,1,0,18838,2.13671875,0.181640625,5,0,2,5,11,519.157958984375,574.163635253906,0,1,faces,female,0,1,faces,A,male,VS,I,87,J08,361.333984375
0,1,0,18840,2.71875,0.337890625,6,0,10,52,13,1012.78106689453,766.55859375,0,1,faces,male,0,1,faces,A,male,VS,I,87,J08,361.333984375
0,1,0,18841,3.07421875,0.18359375,7,0,11,60,14,1125.78186035156,665.527526855469,0,1,objects,small,0,1,faces,A,male,VS,I,87,J08,361.333984375
0,1,0,18843,3.51953125,0.287109375,8,0,14,78,16,1348.73022460938,672.340881347656,0,1,faces,male,0,1,faces,A,male,VS,I,87,J08,361.333984375
0,1,0,18844,3.833984375,0.14453125,9,0,13,67,17,1241.22106933594,444.519378662109,0,1,faces,female,0,1,faces,A,male,VS,I,87,J08,361.333984375
0,1,0,18852,0.85546875,0.205078125,1,1,15,76,4,1346.72937011719,434.067779541016,0,1,faces,female,1,1,faces,P,male,VS,I,88,J08,365.533203125
0,1,0,18854,1.291015625,0.234375,2,1,11,68,6,1248.21350097656,575.570007324219,0,1,faces,female,1,1,faces,P,male,VS,I,88,J08,365.533203125
0,1,0,18855,1.552734375,0.259765625,3,1,14,75,7,1324.796875,382.511169433594,0,1,faces,female,1,1,faces,P,male,VS,I,88,J08,365.533203125
0,1,0,18856,1.876953125,0.251953125,4,1,7,50,8,1024.68603515625,548.519287109375,0,1,faces,male,1,1,faces,P,male,VS,I,88,J08,365.533203125
1,0,0,18857,2.1484375,0.203125,5,0,6,44,9,960.5478515625,796.338928222656,1,0,NaN,NaN,1,1,faces,P,male,VS,I,88,J08,365.533203125
0,0,0,18858,2.369140625,0.1484375,6,0,4,34,10,838.69873046875,781.620300292969,0,1,faces,female,1,1,faces,P,male,VS,I,88,J08,365.533203125
2,0,0,18859,2.533203125,0.240234375,7,0,6,44,11,978.306945800781,886.539367675781,1,0,NaN,NaN,1,1,faces,P,male,VS,I,88,J08,365.533203125
0,0,0,18863,3.755859375,0.166015625,8,0,2,17,15,659.365051269531,882.364990234375,0,1,objects,big,1,1,faces,P,male,VS,I,88,J08,365.533203125
3,0,0,18864,3.9453125,0.908203125,9,0,6,44,16,975.8974609375,860.73193359375,1,0,NaN,NaN,1,1,faces,P,male,VS,I,88,J08,365.533203125
0,1,0,18876,1.1171875,0.265625,1,1,2,4,4,537.456726074219,441.595703125,0,1,faces,female,0,1,objects,A,big,EX,O,89,J08,369.732421875
0,1,0,18877,1.40234375,0.224609375,2,1,3,14,5,620.95361328125,560.936950683594,0,1,objects,big,0,1,objects,A,big,EX,O,89,J08,369.732421875
1,1,0,18878,1.6484375,0.177734375,3,1,7,34,6,833.744567871094,706.210693359375,0,1,objects,small,0,1,objects,A,big,EX,O,89,J08,369.732421875
0,1,0,18879,1.833984375,0.1875,4,1,6,33,7,851.807312011719,671.121948242188,0,1,faces,female,0,1,objects,A,big,EX,O,89,J08,369.732421875
0,1,0,18880,2.0390625,0.259765625,5,0,4,25,8,740.857543945312,777.569580078125,0,1,faces,female,0,1,objects,A,big,EX,O,89,J08,369.732421875
2,1,0,18881,2.322265625,0.197265625,6,0,7,34,9,880.968505859375,783.8466796875,0,1,objects,small,0,1,objects,A,big,EX,O,89,J08,369.732421875
0,1,0,18882,2.552734375,0.2421875,7,0,11,53,10,1106.05297851562,868.182434082031,0,1,faces,male,0,1,objects,A,big,EX,O,89,J08,369.732421875
0,1,0,18883,2.8359375,0.4296875,8,0,14,68,11,1239.48937988281,568.855163574219,0,1,faces,male,0,1,objects,A,big,EX,O,89,J08,369.732421875
0,1,0,18885,3.5234375,0.419921875,9,0,13,64,13,1213.15087890625,179.715911865234,0,1,objects,big,0,1,objects,A,big,EX,O,89,J08,369.732421875
0,1,0,18895,0.24609375,0.119140625,1,1,10,46,1,1037.72326660156,176.796722412109,0,1,faces,female,1,1,faces,P,male,VS,I,90,J08,373.931640625
0,1,0,18902,1.615234375,0.251953125,2,1,9,38,8,936.294311523438,247.399154663086,0,1,faces,female,1,1,faces,P,male,VS,I,90,J08,373.931640625
1,1,0,18903,1.8984375,0.296875,3,1,15,68,9,1219.791015625,513.168090820312,0,1,faces,male,1,1,faces,P,male,VS,I,90,J08,373.931640625
0,1,0,18905,2.392578125,0.29296875,4,1,14,67,11,1213.28308105469,477.859649658203,0,1,faces,male,1,1,faces,P,male,VS,I,90,J08,373.931640625
2,1,0,18906,2.701171875,0.26171875,5,0,15,68,12,1217.95336914062,559.469970703125,0,1,faces,male,1,1,faces,P,male,VS,I,90,J08,373.931640625
0,1,1,18907,3.03515625,0.158203125,6,0,6,17,13,650.34228515625,889.027770996094,0,1,objects,small,1,1,faces,P,male,VS,I,90,J08,373.931640625
0,0,0,18909,3.380859375,1.609375,7,0,8,35,15,834.127868652344,868.765319824219,1,0,NaN,NaN,1,1,faces,P,male,VS,I,90,J08,373.931640625
0,1,0,18919,0.287109375,0.140625,1,1,6,40,2,926.0751953125,430.149047851562,0,1,faces,female,1,1,objects,P,big,VS,O,91,J08,378.130859375
0,1,0,18920,0.46875,0.322265625,2,1,9,56,3,1129.84033203125,243.364349365234,0,1,objects,small,1,1,objects,P,big,VS,O,91,J08,378.130859375
0,0,0,18923,1.3125,2.9453125,3,1,12,64,6,1263.99987792969,186.826889038086,1,0,NaN,NaN,1,1,objects,P,big,VS,O,91,J08,378.130859375
0,1,0,18928,0.287109375,0.390625,1,1,8,32,1,819.283264160156,510.747467041016,0,1,objects,small,0,1,faces,A,female,EX,F,92,J08,382.330078125
0,1,0,18929,0.720703125,0.46875,2,1,7,29,2,880.988037109375,224.607192993164,0,1,objects,small,0,1,faces,A,female,EX,F,92,J08,382.330078125
0,1,0,18930,1.248046875,0.275390625,3,1,4,17,3,663.38720703125,870.800537109375,0,1,faces,male,0,1,faces,A,female,EX,F,92,J08,382.330078125
0,1,0,18932,1.806640625,0.23046875,4,1,9,34,5,824.251647949219,754.440063476562,0,1,faces,male,0,1,faces,A,female,EX,F,92,J08,382.330078125
0,1,0,18937,3.2890625,0.2265625,5,0,15,77,10,1320.07434082031,529.98486328125,0,1,faces,male,0,1,faces,A,female,EX,F,92,J08,382.330078125
0,1,0,18938,3.5546875,0.220703125,6,0,14,65,11,1237.744140625,216.890731811523,0,1,objects,big,0,1,faces,A,female,EX,F,92,J08,382.330078125
0,1,0,18939,3.7890625,0.263671875,7,0,13,55,12,1156.28942871094,174.403030395508,0,1,faces,female,0,1,faces,A,female,EX,F,92,J08,382.330078125
0,1,0,18951,1.326171875,0.1328125,1,1,1,4,6,559.937927246094,483.206787109375,0,1,faces,female,0,1,faces,A,male,VS,F,93,J08,386.529296875
0,1,0,18952,1.48828125,0.275390625,2,1,3,14,7,685.106628417969,573.745910644531,0,1,faces,female,0,1,faces,A,male,VS,F,93,J08,386.529296875
0,1,1,18957,2.7421875,0.16796875,3,1,14,58,12,1148.86865234375,474.856231689453,0,1,objects,big,0,1,faces,A,male,VS,F,93,J08,386.529296875
0,1,0,18960,3.310546875,0.228515625,4,1,7,29,15,897.860717773438,244.553726196289,0,1,faces,male,0,1,faces,A,male,VS,F,93,J08,386.529296875
0,1,0,18972,0.66015625,0.36328125,1,1,6,28,3,836.485107421875,130.535034179688,0,1,objects,big,0,1,objects,A,small,EX,O,94,J08,390.728515625
0,1,0,18973,1.037109375,0.236328125,2,1,8,37,4,931.620422363281,112.869514465332,0,1,faces,male,0,1,objects,A,small,EX,O,94,J08,390.728515625
0,1,0,18975,1.734375,0.13671875,3,1,14,70,6,1225.71643066406,727.260009765625,0,1,faces,male,0,1,objects,A,small,EX,O,94,J08,390.728515625
0,1,1,18976,1.90234375,0.234375,4,1,11,58,7,1198.53137207031,474.105194091797,0,1,faces,female,0,1,objects,A,small,EX,O,94,J08,390.728515625
0,1,0,18978,2.35546875,0.162109375,5,0,1,3,9,542.247009277344,343.850128173828,0,1,faces,male,0,1,objects,A,small,EX,O,94,J08,390.728515625
0,1,0,18980,2.75390625,0.333984375,6,0,3,8,11,535.682006835938,804.079040527344,0,1,objects,small,0,1,objects,A,small,EX,O,94,J08,390.728515625
0,1,0,18982,3.45703125,0.5546875,7,0,9,51,13,1092.76672363281,683.89404296875,0,1,faces,female,0,1,objects,A,small,EX,O,94,J08,390.728515625
0,1,0,18995,0.236328125,0.15234375,1,1,3,12,1,633.322509765625,366.594146728516,0,1,faces,male,0,1,objects,P,small,VS,O,95,J08,394.927734375
0,1,0,18996,0.408203125,0.228515625,2,1,1,10,2,640.980407714844,185.609008789062,0,1,faces,female,0,1,objects,P,small,VS,O,95,J08,394.927734375
0,1,0,19003,0.21484375,0.177734375,1,1,5,23,1,716.036926269531,506.637878417969,0,1,faces,male,0,1,faces,A,female,VS,I,96,J08,399.126953125
1,1,0,19004,0.423828125,0.126953125,2,1,1,11,2,664.176574707031,275.097381591797,0,1,objects,small,0,1,faces,A,female,VS,I,96,J08,399.126953125
0,1,0,19007,0.921875,0.10546875,3,1,7,28,5,820.485412597656,135.04069519043,0,1,objects,big,0,1,faces,A,female,VS,I,96,J08,399.126953125
2,1,0,19008,1.06640625,0.18359375,4,1,1,11,6,706.330017089844,232.010971069336,0,1,objects,small,0,1,faces,A,female,VS,I,96,J08,399.126953125
0,1,1,19009,1.318359375,0.23046875,5,0,12,64,7,1222.18347167969,157.345581054688,0,1,faces,female,0,1,faces,A,female,VS,I,96,J08,399.126953125
0,1,0,19027,1.78125,0.240234375,1,1,12,70,7,1228.64855957031,725.239990234375,0,1,faces,female,1,0,faces,P,male,VS,I,97,J08,403.326171875
0,1,0,19029,2.3359375,0.28515625,2,1,14,77,9,1322.95227050781,517.519775390625,0,1,faces,male,1,0,faces,P,male,VS,I,97,J08,403.326171875
0,1,1,19030,2.658203125,0.17578125,3,1,11,64,10,1260.78125,185.819488525391,1,0,NaN,NaN,1,0,faces,P,male,VS,I,97,J08,403.326171875
0,0,0,19033,3.439453125,0.203125,4,1,2,15,13,610.688110351562,607.547241210938,0,1,faces,female,1,0,faces,P,male,VS,I,97,J08,403.326171875
0,0,0,19034,3.67578125,0.3046875,5,0,6,43,14,963.472045898438,720.374267578125,0,1,faces,male,1,0,faces,P,male,VS,I,97,J08,403.326171875
0,1,0,19042,0.453125,0.154296875,1,1,11,57,2,1137.65173339844,351.97607421875,0,1,faces,female,1,1,faces,P,male,VS,I,98,J08,407.525390625
0,1,0,19044,0.75390625,0.1953125,2,1,14,73,4,1330.69763183594,150.907073974609,0,1,faces,female,1,1,faces,P,male,VS,I,98,J08,407.525390625
1,0,0,19045,1.029296875,0.958984375,3,1,1,10,5,652.753967285156,123.194183349609,1,0,NaN,NaN,1,1,faces,P,male,VS,I,98,J08,407.525390625
0,0,0,19046,2.029296875,0.2265625,4,1,9,46,6,1050.60986328125,121.44800567627,0,1,objects,small,1,1,faces,P,male,VS,I,98,J08,407.525390625
2,0,0,19047,2.29296875,2.181640625,5,0,1,10,7,658.347778320312,136.135437011719,1,0,NaN,NaN,1,1,faces,P,male,VS,I,98,J08,407.525390625
0,1,0,19052,0.23828125,0.173828125,1,1,8,51,1,1036.14709472656,642.902038574219,0,1,faces,male,0,0,faces,A,male,VS,F,99,J08,411.724609375
1,1,0,19053,0.45703125,0.18359375,2,1,4,21,2,784.134643554688,322.085021972656,0,1,faces,female,0,0,faces,A,male,VS,F,99,J08,411.724609375
0,1,0,19054,0.654296875,0.169921875,3,1,3,20,3,753.449523925781,228.464370727539,0,1,faces,female,0,0,faces,A,male,VS,F,99,J08,411.724609375
2,1,0,19055,0.837890625,0.208984375,4,1,4,21,4,766.639831542969,322.357635498047,0,1,faces,female,0,0,faces,A,male,VS,F,99,J08,411.724609375
0,1,0,19056,1.12109375,0.216796875,5,0,10,55,5,1180.44555664062,173.951965332031,0,1,faces,male,0,0,faces,A,male,VS,F,99,J08,411.724609375
1,1,0,19062,0.25,0.205078125,1,1,7,49,1,1084.70910644531,410.906555175781,0,1,faces,female,0,0,objects,A,big,EX,O,100,J08,415.923828125
0,1,0,19063,0.5078125,0.716796875,2,1,1,2,2,551.454772949219,227.389236450195,0,1,faces,male,0,0,objects,A,big,EX,O,100,J08,415.923828125
0,1,0,19065,1.42578125,0.36328125,3,1,2,17,4,666.233764648438,869.488159179688,0,1,faces,female,0,0,objects,A,big,EX,O,100,J08,415.923828125
1,1,0,19067,1.96484375,0.1875,4,1,3,32,6,876.510559082031,523.368957519531,0,1,faces,male,0,0,objects,A,big,EX,O,100,J08,415.923828125
1,1,0,19068,2.181640625,0.240234375,5,0,6,42,7,977.637329101562,665.731079101562,0,1,faces,female,0,0,objects,A,big,EX,O,100,J08,415.923828125
2,1,0,19069,2.447265625,0.51953125,6,0,3,32,8,889.010131835938,521.767150878906,0,1,faces,male,0,0,objects,A,big,EX,O,100,J08,415.923828125
2,1,0,19070,3.00390625,0.4375,7,0,6,42,9,978.357849121094,645.499816894531,0,1,faces,female,0,0,objects,A,big,EX,O,100,J08,415.923828125
0,1,0,19071,3.458984375,0.201171875,8,0,8,50,10,1075.96337890625,511.541656494141,0,1,objects,big,0,0,objects,A,big,EX,O,100,J08,415.923828125
2,1,0,19072,3.671875,0.232421875,9,0,7,49,11,1086.5078125,422.845581054688,0,1,faces,female,0,0,objects,A,big,EX,O,100,J08,415.923828125
0,1,0,19073,3.92578125,0.494140625,10,0,14,75,12,1360.82067871094,331.917633056641,0,1,faces,male,0,0,objects,A,big,EX,O,100,J08,415.923828125
1,1,0,19083,0.232421875,0.146484375,1,1,7,31,1,908.816589355469,432.179168701172,0,1,objects,small,0,1,faces,A,female,EX,I,101,J08,420.123046875
2,1,1,19085,0.5859375,0.181640625,2,1,7,31,3,844.114013671875,442.748474121094,0,1,objects,small,0,1,faces,A,female,EX,I,101,J08,420.123046875
0,1,0,19087,0.9921875,0.439453125,3,1,12,65,5,1277.53771972656,244.30876159668,0,1,faces,male,0,1,faces,A,female,EX,I,101,J08,420.123046875
0,1,0,19088,1.443359375,0.30078125,4,1,13,66,6,1262.22814941406,307.289581298828,0,1,faces,male,0,1,faces,A,female,EX,I,101,J08,420.123046875
0,1,0,19091,2.314453125,0.177734375,5,0,15,71,9,1260.11206054688,874.600524902344,0,1,faces,female,0,1,faces,A,female,EX,I,101,J08,420.123046875
1,1,0,19094,2.890625,0.298828125,6,0,4,15,12,645.896667480469,678.889282226562,0,1,faces,female,0,1,faces,A,female,EX,I,101,J08,420.123046875
0,1,0,19095,3.212890625,0.244140625,7,0,3,13,13,656.723266601562,432.121856689453,0,1,faces,female,0,1,faces,A,female,EX,I,101,J08,420.123046875
2,1,0,19096,3.4921875,0.3125,8,0,4,15,14,668.919311523438,677.706604003906,0,1,faces,female,0,1,faces,A,female,EX,I,101,J08,420.123046875
0,1,0,19097,3.826171875,0.625,9,0,2,12,15,662.558837890625,381.034973144531,0,1,faces,male,0,1,faces,A,female,EX,I,101,J08,420.123046875
1,1,0,19107,0.677734375,0.17578125,1,1,5,23,3,801.513549804688,580.007568359375,0,1,faces,male,0,1,faces,A,male,EX,F,102,J08,424.322265625
0,1,0,19108,0.873046875,0.2734375,2,1,9,33,4,851.624938964844,680.341735839844,0,1,faces,female,0,1,faces,A,male,EX,F,102,J08,424.322265625
0,1,0,19109,1.173828125,0.228515625,3,1,13,61,5,1147.30908203125,736.081726074219,0,1,faces,male,0,1,faces,A,male,EX,F,102,J08,424.322265625
0,1,0,19110,1.44921875,0.203125,4,1,14,77,6,1367.15234375,569.720642089844,0,1,faces,male,0,1,faces,A,male,EX,F,102,J08,424.322265625
0,1,0,19112,1.85546875,0.173828125,5,0,15,81,8,1373.18115234375,971.459289550781,0,1,objects,small,0,1,faces,A,male,EX,F,102,J08,424.322265625
0,1,0,19114,2.296875,0.1875,6,0,6,25,10,726.821105957031,768.895935058594,0,1,faces,female,0,1,faces,A,male,EX,F,102,J08,424.322265625
0,1,0,19115,2.51171875,0.169921875,7,0,3,16,11,653.1796875,788.976623535156,0,1,objects,small,0,1,faces,A,male,EX,F,102,J08,424.322265625
2,1,0,19116,2.716796875,0.240234375,8,0,5,23,12,756.764282226562,571.677978515625,0,1,faces,male,0,1,faces,A,male,EX,F,102,J08,424.322265625
0,1,0,19119,3.982421875,0.263671875,9,0,4,21,15,754.931884765625,374.718658447266,0,1,objects,big,0,1,faces,A,male,EX,F,102,J08,424.322265625
0,1,0,19128,0.365234375,0.158203125,1,1,3,19,2,741.43896484375,109.496551513672,0,1,faces,female,1,1,objects,P,big,VS,O,103,J08,428.521484375
0,0,0,19129,0.54296875,4.126953125,2,1,6,29,3,840.448669433594,214.095657348633,1,0,NaN,NaN,1,1,objects,P,big,VS,O,103,J08,428.521484375
1,1,0,19139,0.21875,0.28125,1,1,5,22,1,741.181274414062,447.574554443359,0,1,faces,male,0,1,faces,A,male,EX,I,104,J08,432.720703125
0,1,0,19141,0.71484375,0.23046875,2,1,9,46,3,1097.31494140625,160.511077880859,0,1,objects,big,0,1,faces,A,male,EX,I,104,J08,432.720703125
0,1,0,19142,0.962890625,0.154296875,3,1,11,55,4,1202.55981445312,185.840225219727,0,1,faces,male,0,1,faces,A,male,EX,I,104,J08,432.720703125
0,1,0,19145,1.59375,0.341796875,4,1,8,45,7,928.621887207031,953.385070800781,0,1,faces,female,0,1,faces,A,male,EX,I,104,J08,432.720703125
1,1,0,19149,2.95703125,0.390625,5,0,7,39,11,980.243835449219,336.271484375,0,1,objects,big,0,1,faces,A,male,EX,I,104,J08,432.720703125
2,1,0,19150,3.373046875,0.462890625,6,0,5,22,12,753.008911132812,420.722412109375,0,1,faces,male,0,1,faces,A,male,EX,I,104,J08,432.720703125
2,1,0,19151,3.85546875,0.5234375,7,0,7,39,13,945.987426757812,357.0517578125,0,1,objects,big,0,1,faces,A,male,EX,I,104,J08,432.720703125
0,1,0,19163,0.203125,0.18359375,1,1,11,46,1,1053.44958496094,179.313125610352,0,1,faces,female,1,1,faces,P,female,VS,F,105,J08,436.919921875
0,1,1,19164,0.47265625,0.158203125,2,1,7,30,2,905.003540039062,323.057922363281,0,1,faces,female,1,1,faces,P,female,VS,F,105,J08,436.919921875
0,1,0,19167,1.015625,0.169921875,3,1,1,1,5,555.711486816406,157.181625366211,0,1,faces,male,1,1,faces,P,female,VS,F,105,J08,436.919921875
0,1,0,19169,1.431640625,0.158203125,4,1,3,15,7,648.232116699219,686.679382324219,0,1,faces,male,1,1,faces,P,female,VS,F,105,J08,436.919921875
0,1,0,19170,1.603515625,0.30078125,5,0,4,16,8,636.862548828125,787.730712890625,0,1,faces,female,1,1,faces,P,female,VS,F,105,J08,436.919921875
0,1,0,19171,1.92578125,0.291015625,6,0,10,43,9,915.263122558594,756.6416015625,0,1,faces,male,1,1,faces,P,female,VS,F,105,J08,436.919921875
0,0,0,19173,2.412109375,2.091796875,7,0,14,61,11,1148.86462402344,755.176574707031,1,0,NaN,NaN,1,1,faces,P,female,VS,F,105,J08,436.919921875
0,1,0,19182,0.279296875,0.201171875,1,1,8,21,1,736.411804199219,328.07373046875,0,1,objects,small,0,1,faces,A,female,EX,F,106,J08,441.119140625
0,1,0,19183,0.5078125,0.31640625,2,1,5,11,2,634.3583984375,197.089431762695,0,1,objects,small,0,1,faces,A,female,EX,F,106,J08,441.119140625
0,1,0,19187,1.517578125,0.20703125,3,1,3,7,6,546.74365234375,752.565002441406,0,1,faces,male,0,1,faces,A,female,EX,F,106,J08,441.119140625
0,1,0,19188,1.73828125,0.255859375,4,1,6,16,7,648.71435546875,736.033874511719,0,1,faces,male,0,1,faces,A,female,EX,F,106,J08,441.119140625
0,1,0,19189,2.046875,0.30859375,5,0,14,70,8,1265.69799804688,738.414855957031,0,1,objects,big,0,1,faces,A,female,EX,F,106,J08,441.119140625
0,1,0,19190,2.3828125,0.3515625,6,0,15,81,9,1348.68701171875,976.164916992188,0,1,faces,female,0,1,faces,A,female,EX,F,106,J08,441.119140625
1,1,0,19191,2.802734375,0.2421875,7,0,12,55,10,1192.38513183594,184.475646972656,0,1,faces,female,0,1,faces,A,female,EX,F,106,J08,441.119140625
0,1,0,19192,3.05859375,0.1640625,8,0,13,65,11,1255.65600585938,241.583770751953,0,1,faces,female,0,1,faces,A,female,EX,F,106,J08,441.119140625
2,1,0,19193,3.240234375,0.779296875,9,0,12,55,12,1143.17114257812,146.4873046875,0,1,faces,female,0,1,faces,A,female,EX,F,106,J08,441.119140625
0,1,0,19204,0.3984375,0.2109375,1,1,5,22,2,716.739440917969,431.996917724609,0,1,objects,small,0,0,objects,A,small,EX,O,107,J08,445.318359375
0,1,0,19205,0.65234375,0.224609375,2,1,1,1,3,510.618469238281,137.389053344727,0,1,faces,female,0,0,objects,A,small,EX,O,107,J08,445.318359375
0,1,0,19206,0.912109375,0.359375,3,1,3,14,4,702.196960449219,516.468994140625,0,1,faces,female,0,0,objects,A,small,EX,O,107,J08,445.318359375
0,1,0,19209,1.65234375,0.13671875,4,1,2,9,7,510.364837646484,955.92041015625,0,1,objects,big,0,0,objects,A,small,EX,O,107,J08,445.318359375
0,1,0,19211,2.03125,0.2578125,5,0,12,63,9,1146.6650390625,971.234313964844,0,1,faces,male,0,0,objects,A,small,EX,O,107,J08,445.318359375
0,1,0,19213,2.515625,0.251953125,6,0,11,58,11,1137.36486816406,433.208984375,0,1,faces,male,0,0,objects,A,small,EX,O,107,J08,445.318359375
0,1,0,19214,2.783203125,0.162109375,7,0,13,66,12,1219.4990234375,334.621887207031,0,1,faces,male,0,0,objects,A,small,EX,O,107,J08,445.318359375
0,1,0,19215,2.970703125,0.27734375,8,0,10,47,13,1022.56018066406,252.063110351562,0,1,faces,female,0,0,objects,A,small,EX,O,107,J08,445.318359375
0,1,0,19216,3.265625,0.296875,9,0,9,38,14,928.534729003906,255.273895263672,0,1,faces,female,0,0,objects,A,small,EX,O,107,J08,445.318359375
0,1,0,19217,3.591796875,0.19921875,10,0,6,23,15,765.349365234375,572.101257324219,0,1,faces,male,0,0,objects,A,small,EX,O,107,J08,445.318359375
0,1,0,19218,3.8046875,0.8515625,11,0,8,32,16,810.722778320312,533.666137695312,0,1,faces,male,0,0,objects,A,small,EX,O,107,J08,445.318359375
0,1,0,19230,0.427734375,0.1796875,1,1,2,19,2,718.070983886719,134.353317260742,0,1,objects,big,0,1,objects,P,small,VS,O,108,J08,449.517578125
0,1,0,19231,0.646484375,0.375,2,1,8,46,3,1055.3369140625,165.569961547852,0,1,objects,big,0,1,objects,P,small,VS,O,108,J08,449.517578125
0,1,0,19232,1.064453125,0.2890625,3,1,13,69,4,1304.67224121094,592.260864257812,0,1,faces,female,0,1,objects,P,small,VS,O,108,J08,449.517578125
0,1,0,19240,0.244140625,0.33203125,1,1,5,30,1,851.615600585938,363.396484375,0,1,faces,female,1,0,faces,P,female,VS,F,109,J08,453.716796875
0,1,0,19241,0.595703125,0.1875,2,1,7,47,2,1045.607421875,247.931335449219,0,1,faces,male,1,0,faces,P,female,VS,F,109,J08,453.716796875
0,1,0,19242,0.80078125,0.326171875,3,1,10,57,3,1153.65209960938,329.161773681641,0,1,faces,male,1,0,faces,P,female,VS,F,109,J08,453.716796875
0,0,0,19243,1.150390625,3.431640625,4,1,15,76,4,1370.49377441406,466.122467041016,1,0,NaN,NaN,1,0,faces,P,female,VS,F,109,J08,453.716796875
0,1,0,19248,0.2109375,0.169921875,1,1,11,47,1,1073.36999511719,226.699279785156,0,1,objects,small,1,1,faces,P,male,VS,F,110,J08,457.916015625
0,1,0,19250,0.794921875,0.27734375,2,1,1,2,3,559.639099121094,278.953460693359,0,1,faces,female,1,1,faces,P,male,VS,F,110,J08,457.916015625
0,1,1,19251,1.103515625,0.189453125,3,1,8,39,4,935.499328613281,344.122711181641,1,0,NaN,NaN,1,1,faces,P,male,VS,F,110,J08,457.916015625
0,0,0,19253,3.25390625,0.3203125,4,1,12,48,6,1064.21374511719,361.636138916016,0,1,faces,male,1,1,faces,P,male,VS,F,110,J08,457.916015625
0,1,0,19260,0.3671875,0.16015625,1,1,4,21,2,784.935791015625,374.872131347656,0,1,objects,big,0,1,faces,A,female,VS,F,111,J08,462.115234375
0,1,0,19262,0.734375,0.3984375,2,1,8,43,4,971.097595214844,738.32568359375,0,1,faces,female,0,1,faces,A,female,VS,F,111,J08,462.115234375
1,1,0,19263,1.150390625,0.361328125,3,1,11,61,5,1138.443359375,733.326843261719,0,1,faces,female,0,1,faces,A,female,VS,F,111,J08,462.115234375
0,1,0,19264,1.529296875,0.365234375,4,1,10,52,6,1075.19689941406,735.385803222656,0,1,faces,female,0,1,faces,A,female,VS,F,111,J08,462.115234375
2,1,0,19265,1.912109375,0.2265625,5,0,11,61,7,1183.36499023438,754.055053710938,0,1,faces,female,0,1,faces,A,female,VS,F,111,J08,462.115234375
0,1,1,19268,2.75390625,0.17578125,6,0,9,45,10,986.825805664062,955.198181152344,0,1,faces,female,0,1,faces,A,female,VS,F,111,J08,462.115234375
0,1,0,19270,3.154296875,0.162109375,7,0,12,63,12,1151.12231445312,941.480407714844,0,1,objects,big,0,1,faces,A,female,VS,F,111,J08,462.115234375
0,1,0,19271,3.365234375,0.21875,8,0,13,66,13,1260.72045898438,389.925354003906,0,1,faces,male,0,1,faces,A,female,VS,F,111,J08,462.115234375
0,1,0,19272,3.662109375,0.158203125,9,0,1,1,14,593.949340820312,164.310791015625,0,1,faces,male,0,1,faces,A,female,VS,F,111,J08,462.115234375
0,1,0,19273,3.890625,0.361328125,10,0,14,67,15,1275.77380371094,461.361999511719,0,1,faces,male,0,1,faces,A,female,VS,F,111,J08,462.115234375
1,1,0,19276,0.21875,0.30078125,1,1,8,39,1,956.524169921875,302.677093505859,0,1,faces,female,0,1,faces,P,male,VS,F,112,J08,466.314453125
0,1,0,19277,0.552734375,0.275390625,2,1,3,12,2,663.807739257812,323.904327392578,0,1,faces,male,0,1,faces,P,male,VS,F,112,J08,466.314453125
2,1,0,19278,0.865234375,0.154296875,3,1,8,39,3,940.163391113281,358.890960693359,0,1,faces,female,0,1,faces,P,male,VS,F,112,J08,466.314453125
0,1,0,19281,1.439453125,3.22265625,4,1,10,46,6,1049.2939453125,169.986663818359,0,1,faces,male,0,1,faces,P,male,VS,F,112,J08,466.314453125
0,1,0,19287,0.2109375,0.2421875,1,1,10,44,1,951.404418945312,847.811096191406,0,1,objects,small,0,0,objects,P,big,VS,O,113,J08,470.513671875
1,1,0,19288,0.470703125,0.24609375,2,1,9,35,2,828.231811523438,873.403625488281,0,1,faces,male,0,0,objects,P,big,VS,O,113,J08,470.513671875
1,1,0,19290,0.984375,0.23046875,3,1,13,69,4,1247.77624511719,628.841552734375,0,1,faces,male,0,0,objects,P,big,VS,O,113,J08,470.513671875
0,1,0,19291,1.224609375,0.197265625,4,1,12,68,5,1285.04174804688,553.096557617188,0,1,objects,big,0,0,objects,P,big,VS,O,113,J08,470.513671875
0,1,0,19292,1.453125,0.3203125,5,0,11,48,6,1093.43347167969,363.082946777344,0,1,objects,small,0,0,objects,P,big,VS,O,113,J08,470.513671875
0,1,1,19293,1.8125,0.4140625,6,0,2,10,7,699.641418457031,150.181076049805,0,1,objects,small,0,0,objects,P,big,VS,O,113,J08,470.513671875
0,1,0,19297,3.068359375,0.1640625,7,0,7,26,11,726.849914550781,881.001831054688,0,1,faces,female,0,0,objects,P,big,VS,O,113,J08,470.513671875
2,1,0,19298,3.25,0.30078125,8,0,9,35,12,844.187194824219,865.465087890625,0,1,faces,male,0,0,objects,P,big,VS,O,113,J08,470.513671875
2,1,0,19299,3.595703125,0.23828125,9,0,13,69,13,1280.63635253906,649.217712402344,0,1,faces,male,0,0,objects,P,big,VS,O,113,J08,470.513671875
0,1,0,19300,3.84765625,0.1796875,10,0,15,77,14,1318.14685058594,559.328308105469,0,1,faces,female,0,0,objects,P,big,VS,O,113,J08,470.513671875
0,1,0,19306,0.447265625,0.236328125,1,1,11,68,2,1246.58483886719,572.597961425781,0,1,objects,big,1,1,objects,P,small,VS,O,114,J08,474.712890625
0,1,0,19307,0.73046875,0.240234375,2,1,5,20,3,756.0458984375,242.493545532227,0,1,objects,big,1,1,objects,P,small,VS,O,114,J08,474.712890625
0,0,0,19309,1.119140625,3.3203125,3,1,8,45,5,928.633178710938,942.238403320312,1,0,NaN,NaN,1,1,objects,P,small,VS,O,114,J08,474.712890625
0,1,0,19317,0.244140625,0.236328125,1,1,1,3,1,535.023559570312,310.292358398438,0,1,objects,big,0,1,objects,A,big,VS,O,115,J08,478.912109375
0,1,0,19319,0.681640625,0.408203125,2,1,7,38,3,917.557250976562,216.017700195312,0,1,objects,big,0,1,objects,A,big,VS,O,115,J08,478.912109375
0,1,1,19321,1.333984375,0.154296875,3,1,14,70,5,1251.9462890625,787.083862304688,0,1,faces,female,0,1,objects,A,big,VS,O,115,J08,478.912109375
0,1,0,19324,1.9765625,0.1171875,4,1,4,24,8,757.549377441406,666.107421875,0,1,objects,small,0,1,objects,A,big,VS,O,115,J08,478.912109375
0,1,0,19327,2.5546875,0.1953125,5,0,13,63,11,1151.94689941406,917.877197265625,0,1,faces,male,0,1,objects,A,big,VS,O,115,J08,478.912109375
