refix,pretarget,multifix,urevent,tonset,dur_added,rank,first_rank,stposrel,stposabs,n,x,y,istarget,isdistractor,distractor_cat,ditractor_atr,trial_targetseen,trial_correct,trial_cat,trial_resp,trial_atr,trial_type,trial_cattype,trial_number,trial_subject,trial_bgn_latency
0,1,1,21045,0.2890625,0.212890625,1,1,6,41,1,982.599243164062,569.147277832031,0,1,objects,big,0,0,objects,P,small,VS,O,1,J11,0.201171875
0,1,0,21048,0.93359375,0.1640625,2,1,1,3,4,532.285583496094,312.234893798828,0,1,faces,female,0,0,objects,P,small,VS,O,1,J11,0.201171875
0,1,0,21050,1.314453125,0.267578125,3,1,4,29,6,840.470703125,224.38655090332,0,1,faces,male,0,0,objects,P,small,VS,O,1,J11,0.201171875
1,1,1,21051,1.6484375,0.220703125,4,1,12,74,7,1343.83666992188,201.758682250977,0,1,faces,female,0,0,objects,P,small,VS,O,1,J11,0.201171875
0,1,0,21053,2.208984375,0.353515625,5,0,13,75,9,1356.56567382812,349.536407470703,0,1,faces,female,0,0,objects,P,small,VS,O,1,J11,0.201171875
2,1,0,21054,2.595703125,0.46484375,6,0,12,74,10,1346.86389160156,242.08642578125,0,1,faces,female,0,0,objects,P,small,VS,O,1,J11,0.201171875
0,1,0,21055,3.095703125,0.470703125,7,0,11,73,11,1316.90856933594,122.837852478027,0,1,faces,female,0,0,objects,P,small,VS,O,1,J11,0.201171875
0,1,0,21057,3.798828125,0.552734375,8,0,14,77,13,1375.08984375,556.223510742188,0,1,faces,male,0,0,objects,P,small,VS,O,1,J11,0.201171875
0,1,0,21074,0.267578125,0.31640625,1,1,7,41,1,955.313171386719,542.1396484375,0,1,faces,male,1,0,objects,P,big,VS,O,2,J11,4.400390625
0,1,0,21075,0.630859375,0.3046875,2,1,4,25,2,750.751953125,762.482666015625,0,1,objects,small,1,0,objects,P,big,VS,O,2,J11,4.400390625
0,1,1,21076,0.982421875,0.171875,3,1,8,43,3,978.633544921875,744.667663574219,0,1,faces,female,1,0,objects,P,big,VS,O,2,J11,4.400390625
1,0,0,21078,1.36328125,0.76171875,4,1,9,52,5,1071.76123046875,740.668273925781,1,0,NaN,NaN,1,0,objects,P,big,VS,O,2,J11,4.400390625
0,0,0,21079,2.16015625,0.291015625,5,0,10,53,6,1059.90124511719,850.363586425781,0,1,objects,big,1,0,objects,P,big,VS,O,2,J11,4.400390625
2,0,0,21080,2.482421875,2.126953125,6,0,9,52,7,1072.91552734375,742.888122558594,1,0,NaN,NaN,1,0,objects,P,big,VS,O,2,J11,4.400390625
0,1,0,21099,0.8828125,0.27734375,1,1,2,5,4,536.764038085938,556.88232421875,0,1,faces,female,0,0,faces,A,male,VS,I,3,J11,8.599609375
0,1,1,21103,1.8984375,0.16015625,2,1,8,55,8,1115.31323242188,162.240097045898,0,1,faces,male,0,0,faces,A,male,VS,I,3,J11,8.599609375
0,1,0,21105,2.341796875,0.30859375,3,1,9,56,10,1146.07019042969,237.502471923828,0,1,faces,male,0,0,faces,A,male,VS,I,3,J11,8.599609375
0,1,1,21106,2.7109375,0.201171875,4,1,13,77,11,1376.33239746094,520.064392089844,0,1,faces,male,0,0,faces,A,male,VS,I,3,J11,8.599609375
0,1,0,21125,0.294921875,0.119140625,1,1,6,51,1,1047.58935546875,661.972839355469,0,1,objects,small,1,0,faces,P,male,VS,F,4,J11,12.798828125
0,1,1,21126,0.470703125,0.158203125,2,1,3,17,2,640.512145996094,799.3037109375,1,0,NaN,NaN,1,0,faces,P,male,VS,F,4,J11,12.798828125
0,0,1,21128,1.951171875,0.189453125,3,1,10,62,4,1170.26293945312,863.408203125,0,1,faces,male,1,0,faces,P,male,VS,F,4,J11,12.798828125
0,0,1,21131,2.796875,0.14453125,4,1,12,69,7,1251.49645996094,626.292663574219,0,1,faces,male,1,0,faces,P,male,VS,F,4,J11,12.798828125
0,0,0,21133,3.322265625,0.3359375,5,0,9,59,9,1163.51257324219,551.248596191406,0,1,faces,male,1,0,faces,P,male,VS,F,4,J11,12.798828125
0,0,0,21134,3.689453125,0.376953125,6,0,8,58,10,1161.45300292969,476.089782714844,0,1,faces,female,1,0,faces,P,male,VS,F,4,J11,12.798828125
0,1,0,21149,0.283203125,0.20703125,1,1,4,24,2,738.293762207031,658.50390625,0,1,faces,male,0,1,faces,A,female,VS,F,5,J11,16.998046875
0,1,1,21150,0.525390625,0.26171875,2,1,2,14,3,648.8779296875,559.177307128906,0,1,faces,male,0,1,faces,A,female,VS,F,5,J11,16.998046875
0,1,1,21152,0.916015625,0.171875,3,1,1,11,5,679.51611328125,276.449554443359,0,1,faces,female,0,1,faces,A,female,VS,F,5,J11,16.998046875
0,1,0,21154,1.3359375,0.306640625,4,1,8,56,7,1196.10876464844,289.002655029297,0,1,objects,small,0,1,faces,A,female,VS,F,5,J11,16.998046875
0,1,0,21155,1.669921875,0.291015625,5,0,9,57,8,1151.52270507812,336.884185791016,0,1,faces,female,0,1,faces,A,female,VS,F,5,J11,16.998046875
0,1,0,21156,2.00390625,0.29296875,6,0,10,64,9,1225.35034179688,143.600845336914,0,1,faces,male,0,1,faces,A,female,VS,F,5,J11,16.998046875
0,1,0,21157,2.35546875,0.373046875,7,0,12,68,10,1269.53161621094,545.299438476562,0,1,faces,female,0,1,faces,A,female,VS,F,5,J11,16.998046875
0,1,0,21158,2.759765625,0.3203125,8,0,11,67,11,1248.59729003906,470.849090576172,0,1,faces,male,0,1,faces,A,female,VS,F,5,J11,16.998046875
0,1,1,21159,3.130859375,0.17578125,9,0,13,69,12,1233.94311523438,657.800964355469,0,1,faces,female,0,1,faces,A,female,VS,F,5,J11,16.998046875
0,1,0,21161,3.51953125,0.205078125,10,0,15,81,14,1322.5830078125,974.617614746094,0,1,objects,small,0,1,faces,A,female,VS,F,5,J11,16.998046875
0,1,0,21162,3.78515625,0.146484375,11,0,6,36,15,834.418273925781,952.081665039062,0,1,faces,female,0,1,faces,A,female,VS,F,5,J11,16.998046875
0,1,0,21176,0.658203125,0.240234375,1,1,3,16,3,671.095886230469,754.799499511719,0,1,faces,male,0,1,objects,A,small,EX,O,6,J11,21.197265625
0,1,0,21177,0.947265625,0.328125,2,1,10,33,4,884.703674316406,644.877075195312,0,1,faces,female,0,1,objects,A,small,EX,O,6,J11,21.197265625
0,1,0,21179,1.486328125,0.2890625,3,1,13,62,6,1162.87878417969,857.344421386719,0,1,faces,female,0,1,objects,A,small,EX,O,6,J11,21.197265625
0,1,1,21180,1.83984375,0.16015625,4,1,15,67,7,1298.12878417969,466.23095703125,0,1,faces,male,0,1,objects,A,small,EX,O,6,J11,21.197265625
0,1,1,21182,2.287109375,0.146484375,5,0,14,64,9,1250.46459960938,162.368682861328,0,1,faces,male,0,1,objects,A,small,EX,O,6,J11,21.197265625
0,1,0,21186,3.01953125,1.046875,6,0,2,11,13,621.617309570312,228.366195678711,0,1,faces,female,0,1,objects,A,small,EX,O,6,J11,21.197265625
0,1,0,21199,0.287109375,0.138671875,1,1,7,40,1,934.037109375,444.701873779297,0,1,faces,female,1,0,faces,P,male,VS,F,7,J11,25.396484375
1,1,1,21200,0.4765625,0.201171875,2,1,5,21,2,727.924011230469,346.280364990234,0,1,faces,male,1,0,faces,P,male,VS,F,7,J11,25.396484375
0,0,0,21202,0.888671875,0.30859375,3,1,4,11,4,619.152893066406,231.070114135742,1,0,NaN,NaN,1,0,faces,P,male,VS,F,7,J11,25.396484375
2,0,1,21203,1.244140625,0.2109375,4,1,5,21,5,741.608825683594,335.743377685547,0,1,faces,male,1,0,faces,P,male,VS,F,7,J11,25.396484375
0,0,0,21205,1.951171875,0.2421875,5,0,14,69,7,1270.18798828125,664.291381835938,0,1,objects,big,1,0,faces,P,male,VS,F,7,J11,25.396484375
0,0,0,21206,2.24609375,0.244140625,6,0,15,76,8,1390.03259277344,470.130584716797,0,1,objects,big,1,0,faces,P,male,VS,F,7,J11,25.396484375
0,0,1,21207,2.552734375,0.23828125,7,0,8,45,9,972.812438964844,931.079345703125,0,1,faces,female,1,0,faces,P,male,VS,F,7,J11,25.396484375
0,0,0,21209,2.921875,0.38671875,8,0,11,53,11,1051.25537109375,850.984619140625,0,1,faces,female,1,0,faces,P,male,VS,F,7,J11,25.396484375
0,0,0,21211,3.53515625,0.228515625,9,0,13,65,13,1245.32849121094,231.724960327148,0,1,faces,female,1,0,faces,P,male,VS,F,7,J11,25.396484375
0,0,0,21212,3.794921875,0.2890625,10,0,12,56,14,1135.75463867188,227.156204223633,0,1,faces,male,1,0,faces,P,male,VS,F,7,J11,25.396484375
0,1,0,21225,0.2578125,0.13671875,1,1,3,23,1,794.958984375,559.6201171875,0,1,objects,big,1,1,faces,P,female,VS,I,8,J11,29.595703125
0,1,0,21226,0.419921875,0.203125,2,1,2,14,2,666.660827636719,536.011413574219,0,1,faces,male,1,1,faces,P,female,VS,I,8,J11,29.595703125
0,1,0,21227,0.685546875,0.1640625,3,1,4,29,3,907.981384277344,223.697662353516,0,1,objects,small,1,1,faces,P,female,VS,I,8,J11,29.595703125
0,1,0,21228,0.861328125,0.193359375,4,1,6,38,4,941.543701171875,224.319458007812,0,1,faces,female,1,1,faces,P,female,VS,I,8,J11,29.595703125
0,1,0,21229,1.109375,0.232421875,5,0,1,3,5,543.057373046875,334.090606689453,0,1,faces,male,1,1,faces,P,female,VS,I,8,J11,29.595703125
0,1,0,21230,1.41796875,0.26953125,6,0,10,57,6,1145.341796875,341.783081054688,0,1,faces,male,1,1,faces,P,female,VS,I,8,J11,29.595703125
0,1,1,21231,1.740234375,0.208984375,7,0,12,64,7,1211.419921875,152.858917236328,0,1,faces,female,1,1,faces,P,female,VS,I,8,J11,29.595703125
0,1,0,21234,2.5625,0.1953125,8,0,13,70,10,1248.49877929688,755.042175292969,0,1,faces,male,1,1,faces,P,female,VS,I,8,J11,29.595703125
0,1,0,21235,2.7890625,0.2421875,9,0,14,79,11,1369.33728027344,759.091552734375,0,1,faces,female,1,1,faces,P,female,VS,I,8,J11,29.595703125
0,0,0,21236,3.068359375,1.015625,10,0,11,60,12,1173.68774414062,651.447143554688,1,0,NaN,NaN,1,1,faces,P,female,VS,I,8,J11,29.595703125
0,1,0,21253,0.587890625,0.1484375,1,1,9,44,2,951.144104003906,856.603942871094,0,1,objects,small,0,0,faces,A,female,VS,I,9,J11,33.794921875
0,1,0,21254,0.791015625,0.205078125,2,1,3,16,3,663.866943359375,760.630676269531,0,1,faces,male,0,0,faces,A,female,VS,I,9,J11,33.794921875
0,1,0,21255,1.0625,0.275390625,3,1,15,79,4,1319.1357421875,755.624694824219,0,1,objects,big,0,0,faces,A,female,VS,I,9,J11,33.794921875
0,1,0,21256,1.3671875,0.1640625,4,1,13,69,5,1267.96850585938,681.900939941406,0,1,objects,small,0,0,faces,A,female,VS,I,9,J11,33.794921875
0,1,0,21257,1.564453125,0.27734375,5,0,11,61,6,1156.84912109375,754.121337890625,0,1,faces,female,0,0,faces,A,female,VS,I,9,J11,33.794921875
0,1,1,21258,1.90234375,0.181640625,6,0,12,66,7,1278.17468261719,326.235290527344,0,1,faces,male,0,0,faces,A,female,VS,I,9,J11,33.794921875
0,1,0,21260,2.326171875,0.21484375,7,0,8,39,9,956.686950683594,313.287506103516,0,1,faces,female,0,0,faces,A,female,VS,I,9,J11,33.794921875
0,1,0,21261,2.5703125,0.3125,8,0,7,38,10,950.548950195312,253.729934692383,0,1,faces,female,0,0,faces,A,female,VS,I,9,J11,33.794921875
0,1,0,21262,2.93359375,0.2734375,9,0,2,12,11,686.691772460938,331.037719726562,0,1,objects,small,0,0,faces,A,female,VS,I,9,J11,33.794921875
0,1,0,21264,3.369140625,0.240234375,10,0,5,20,13,765.134582519531,240.605224609375,0,1,faces,female,0,0,faces,A,female,VS,I,9,J11,33.794921875
0,1,0,21265,3.642578125,0.228515625,11,0,4,19,14,729.181030273438,124.083030700684,0,1,faces,female,0,0,faces,A,female,VS,I,9,J11,33.794921875
0,1,0,21266,3.923828125,0.12890625,12,0,6,21,15,766.574096679688,383.783782958984,0,1,faces,male,0,0,faces,A,female,VS,I,9,J11,33.794921875
0,1,0,21285,0.458984375,0.21484375,1,1,2,15,2,674.414672851562,626.193969726562,0,1,faces,female,0,0,objects,A,big,EX,O,10,J11,37.994140625
0,1,0,21287,1.05859375,0.1875,2,1,1,3,4,565.145874023438,306.755554199219,0,1,objects,big,0,0,objects,A,big,EX,O,10,J11,37.994140625
0,1,0,21288,1.32421875,0.201171875,3,1,12,57,5,1173.42016601562,332.477081298828,0,1,objects,small,0,0,objects,A,big,EX,O,10,J11,37.994140625
0,1,0,21289,1.59375,0.251953125,4,1,13,62,6,1155.22253417969,874.2744140625,0,1,faces,female,0,0,objects,A,big,EX,O,10,J11,37.994140625
0,1,0,21290,1.90234375,0.287109375,5,0,7,27,7,759.031188964844,950.559387207031,0,1,objects,big,0,0,objects,A,big,EX,O,10,J11,37.994140625
0,1,0,21291,2.2265625,0.357421875,6,0,10,35,8,863.618774414062,799.115783691406,0,1,faces,male,0,0,objects,A,big,EX,O,10,J11,37.994140625
0,1,1,21294,3.25,0.162109375,7,0,15,74,11,1380.79833984375,260.576263427734,0,1,faces,male,0,0,objects,A,big,EX,O,10,J11,37.994140625
0,1,0,21296,3.625,0.318359375,8,0,5,20,13,770.842163085938,195.559967041016,0,1,faces,female,0,0,objects,A,big,EX,O,10,J11,37.994140625
0,1,0,21297,3.994140625,1.091796875,9,0,11,38,14,974.9677734375,224.812591552734,0,1,objects,big,0,0,objects,A,big,EX,O,10,J11,37.994140625
0,1,0,21311,0.263671875,0.287109375,1,1,8,32,1,868.567626953125,555.561645507812,0,1,faces,female,0,0,faces,P,female,VS,I,11,J11,42.193359375
0,1,0,21312,0.59375,0.103515625,2,1,2,5,2,573.824035644531,514.254455566406,0,1,objects,small,0,0,faces,P,female,VS,I,11,J11,42.193359375
0,1,1,21313,0.767578125,0.220703125,3,1,12,66,3,1242.82788085938,381.791351318359,0,1,objects,small,0,0,faces,P,female,VS,I,11,J11,42.193359375
0,1,0,21315,1.220703125,0.27734375,4,1,14,74,5,1350.28161621094,226.755233764648,0,1,objects,small,0,0,faces,P,female,VS,I,11,J11,42.193359375
0,1,1,21316,1.556640625,0.173828125,5,0,6,29,6,873.709106445312,222.742736816406,0,1,faces,male,0,0,faces,P,female,VS,I,11,J11,42.193359375
0,1,0,21318,2.0234375,0.28125,6,0,9,47,8,1037.8525390625,233.078063964844,0,1,faces,female,0,0,faces,P,female,VS,I,11,J11,42.193359375
0,1,0,21319,2.35546875,0.248046875,7,0,7,30,9,839.706359863281,368.668853759766,0,1,faces,male,0,0,faces,P,female,VS,I,11,J11,42.193359375
0,1,0,21320,2.6640625,0.271484375,8,0,5,25,10,738.619934082031,755.485595703125,0,1,faces,male,0,0,faces,P,female,VS,I,11,J11,42.193359375
0,1,0,21321,2.96875,0.34765625,9,0,4,16,11,681.256042480469,738.002746582031,0,1,objects,big,0,0,faces,P,female,VS,I,11,J11,42.193359375
0,1,0,21322,3.3984375,0.2890625,10,0,13,72,12,1283.16918945312,956.024169921875,0,1,faces,male,0,0,faces,P,female,VS,I,11,J11,42.193359375
0,1,1,21336,0.291015625,0.158203125,1,1,3,13,1,647.449401855469,449.262390136719,0,1,faces,female,0,0,faces,A,male,EX,F,12,J11,46.392578125
0,1,0,21338,0.625,0.3125,2,1,2,12,3,652.658081054688,341.26708984375,0,1,faces,female,0,0,faces,A,male,EX,F,12,J11,46.392578125
0,1,0,21339,0.998046875,0.3359375,3,1,10,56,4,1112.80737304688,232.153518676758,0,1,objects,big,0,0,faces,A,male,EX,F,12,J11,46.392578125
0,1,0,21340,1.3671875,0.271484375,4,1,12,64,5,1230.51403808594,155.157928466797,0,1,faces,male,0,0,faces,A,male,EX,F,12,J11,46.392578125
0,1,0,21343,2.033203125,0.15625,5,0,11,59,8,1168.15710449219,561.478393554688,0,1,faces,male,0,0,faces,A,male,EX,F,12,J11,46.392578125
0,1,0,21344,2.234375,0.2265625,6,0,13,67,9,1280.74377441406,463.363800048828,0,1,objects,small,0,0,faces,A,male,EX,F,12,J11,46.392578125
0,1,0,21346,2.6875,0.220703125,7,0,14,70,11,1277.0673828125,765.426452636719,0,1,objects,big,0,0,faces,A,male,EX,F,12,J11,46.392578125
0,1,1,21347,2.958984375,0.142578125,8,0,8,54,12,1034.49829101562,966.650024414062,0,1,faces,male,0,0,faces,A,male,EX,F,12,J11,46.392578125
0,1,0,21349,3.326171875,0.201171875,9,0,7,53,14,1070.3544921875,851.812377929688,0,1,faces,female,0,0,faces,A,male,EX,F,12,J11,46.392578125
0,1,1,21350,3.58203125,0.123046875,10,0,4,26,15,749.329772949219,834.748962402344,0,1,faces,male,0,0,faces,A,male,EX,F,12,J11,46.392578125
0,1,1,21367,0.609375,0.326171875,1,1,5,22,3,741.637145996094,463.783447265625,0,1,faces,male,0,0,objects,P,small,VS,O,13,J11,50.591796875
0,1,0,21369,1.224609375,0.29296875,2,1,1,3,5,527.279174804688,318.9326171875,0,1,faces,male,0,0,objects,P,small,VS,O,13,J11,50.591796875
0,1,0,21371,1.873046875,0.279296875,3,1,9,37,7,944.512573242188,144.327453613281,0,1,faces,female,0,0,objects,P,small,VS,O,13,J11,50.591796875
0,1,0,21373,2.376953125,0.21875,4,1,3,10,9,629.209167480469,121.751220703125,0,1,faces,male,0,0,objects,P,small,VS,O,13,J11,50.591796875
0,1,0,21374,2.666015625,0.4609375,5,0,14,76,10,1356.54516601562,436.674743652344,0,1,objects,small,0,0,objects,P,small,VS,O,13,J11,50.591796875
0,1,0,21375,3.16015625,0.30078125,6,0,13,75,11,1375.9501953125,333.171020507812,0,1,faces,female,0,0,objects,P,small,VS,O,13,J11,50.591796875
0,1,0,21377,3.68359375,0.29296875,7,0,4,18,13,675.461120605469,921.94970703125,0,1,faces,male,0,0,objects,P,small,VS,O,13,J11,50.591796875
0,1,0,21393,0.2578125,0.244140625,1,1,5,32,1,902.699951171875,542.056518554688,0,1,objects,small,0,0,objects,A,small,VS,O,14,J11,54.791015625
1,1,0,21394,0.556640625,0.3828125,2,1,3,8,2,607.997741699219,846.429870605469,0,1,objects,big,0,0,objects,A,small,VS,O,14,J11,54.791015625
0,1,0,21396,1.337890625,0.126953125,3,1,4,17,4,619.454528808594,848.717712402344,0,1,faces,male,0,0,objects,A,small,VS,O,14,J11,54.791015625
2,1,0,21397,1.48828125,0.56640625,4,1,3,8,5,587.203491210938,848.156616210938,0,1,objects,big,0,0,objects,A,small,VS,O,14,J11,54.791015625
0,1,0,21399,2.404296875,0.22265625,5,0,15,78,7,1359.95971679688,638.006896972656,0,1,faces,female,0,0,objects,A,small,VS,O,14,J11,54.791015625
0,1,0,21400,2.662109375,0.119140625,6,0,10,53,8,1088.11352539062,842.682495117188,0,1,objects,small,0,0,objects,A,small,VS,O,14,J11,54.791015625
0,1,0,21403,3.2421875,0.232421875,7,0,7,38,11,921.733825683594,213.01252746582,0,1,faces,male,0,0,objects,A,small,VS,O,14,J11,54.791015625
0,1,0,21405,3.712890625,0.19140625,8,0,2,2,13,535.952026367188,207.568222045898,0,1,faces,male,0,0,objects,A,small,VS,O,14,J11,54.791015625
0,1,0,21406,3.921875,0.185546875,9,0,1,1,14,537.170959472656,131.063018798828,0,1,faces,female,0,0,objects,A,small,VS,O,14,J11,54.791015625
0,1,0,21419,0.86328125,0.2734375,1,1,8,39,4,991.809020996094,336.067138671875,0,1,objects,big,1,0,objects,P,small,VS,O,15,J11,58.990234375
0,1,1,21421,1.28515625,0.26171875,2,1,1,11,6,648.894165039062,288.316986083984,0,1,objects,big,1,0,objects,P,small,VS,O,15,J11,58.990234375
0,1,0,21423,1.69921875,0.52734375,3,1,2,12,8,640.709167480469,322.736053466797,0,1,objects,small,1,0,objects,P,small,VS,O,15,J11,58.990234375
0,1,0,21425,2.595703125,0.201171875,4,1,13,61,10,1133.85290527344,785.381896972656,0,1,faces,male,1,0,objects,P,small,VS,O,15,J11,58.990234375
0,0,0,21426,2.84765625,0.35546875,5,0,12,59,11,1163.52526855469,559.01171875,1,0,NaN,NaN,1,0,objects,P,small,VS,O,15,J11,58.990234375
0,1,0,21438,0.271484375,0.2421875,1,1,5,42,1,973.012634277344,629.879943847656,0,1,objects,big,1,0,faces,P,male,VS,I,16,J11,63.189453125
0,1,1,21439,0.556640625,0.1875,2,1,4,39,2,964.355224609375,389.646148681641,0,1,faces,female,1,0,faces,P,male,VS,I,16,J11,63.189453125
0,1,0,21441,0.91015625,0.2109375,3,1,10,66,4,1303.18115234375,349.462127685547,0,1,objects,big,1,0,faces,P,male,VS,I,16,J11,63.189453125
0,1,0,21442,1.146484375,0.15625,4,1,13,75,5,1355.29663085938,356.441314697266,0,1,faces,female,1,0,faces,P,male,VS,I,16,J11,63.189453125
0,1,1,21443,1.3671875,0.2109375,5,0,15,80,6,1348.79858398438,876.997131347656,0,1,objects,big,1,0,faces,P,male,VS,I,16,J11,63.189453125
0,1,0,21445,1.814453125,0.203125,6,0,11,71,8,1221.88989257812,886.618896484375,0,1,faces,female,1,0,faces,P,male,VS,I,16,J11,63.189453125
0,1,0,21446,2.052734375,0.302734375,7,0,9,54,9,1019.66015625,929.0849609375,0,1,faces,male,1,0,faces,P,male,VS,I,16,J11,63.189453125
0,1,0,21447,2.404296875,0.287109375,8,0,8,52,10,1053.05029296875,768.592102050781,0,1,faces,female,1,0,faces,P,male,VS,I,16,J11,63.189453125
0,0,1,21448,2.75,0.296875,9,0,1,7,11,610.331359863281,749.353576660156,1,1,faces,female,1,0,faces,P,male,VS,I,16,J11,63.189453125
0,1,0,21458,0.275390625,0.173828125,1,1,8,44,1,951.620544433594,859.191284179688,0,1,faces,male,0,0,faces,A,male,VS,F,17,J11,67.388671875
0,1,0,21459,0.505859375,0.283203125,2,1,1,9,2,594.703247070312,923.440307617188,0,1,faces,female,0,0,faces,A,male,VS,F,17,J11,67.388671875
0,1,0,21460,0.84765625,0.189453125,3,1,9,45,3,948.132995605469,933.427673339844,0,1,faces,female,0,0,faces,A,male,VS,F,17,J11,67.388671875
0,1,0,21462,1.33203125,0.271484375,4,1,14,60,5,1175.99365234375,612.209411621094,0,1,faces,female,0,0,faces,A,male,VS,F,17,J11,67.388671875
0,1,0,21464,1.8125,0.201171875,5,0,12,57,7,1163.71618652344,355.472839355469,0,1,faces,female,0,0,faces,A,male,VS,F,17,J11,67.388671875
0,1,0,21465,2.044921875,0.1953125,6,0,10,47,8,1028.81774902344,241.839019775391,0,1,objects,small,0,0,faces,A,male,VS,F,17,J11,67.388671875
1,1,0,21466,2.267578125,0.158203125,7,0,7,38,9,952.740539550781,242.671585083008,0,1,faces,male,0,0,faces,A,male,VS,F,17,J11,67.388671875
0,1,0,21467,2.484375,0.36328125,8,0,4,14,10,654.657958984375,561.586303710938,0,1,faces,male,0,0,faces,A,male,VS,F,17,J11,67.388671875
2,1,0,21469,3.099609375,0.462890625,9,0,7,38,12,955.76416015625,243.14501953125,0,1,faces,male,0,0,faces,A,male,VS,F,17,J11,67.388671875
0,1,1,21470,3.6171875,0.13671875,10,0,2,12,13,632.690856933594,366.537292480469,0,1,faces,male,0,0,faces,A,male,VS,F,17,J11,67.388671875
0,1,0,21487,0.466796875,0.24609375,1,1,13,71,3,1256.84680175781,832.335327148438,0,1,faces,male,1,0,faces,P,female,VS,F,18,J11,71.587890625
0,1,0,21488,0.751953125,0.212890625,2,1,11,52,4,1073.04663085938,767.475646972656,0,1,faces,male,1,0,faces,P,female,VS,F,18,J11,71.587890625
0,1,0,21489,1,0.224609375,3,1,9,44,5,913.739624023438,841.968383789062,0,1,faces,female,1,0,faces,P,female,VS,F,18,J11,71.587890625
0,1,0,21490,1.259765625,0.10546875,4,1,6,26,6,752.222778320312,851.185791015625,0,1,objects,big,1,0,faces,P,female,VS,F,18,J11,71.587890625
0,1,0,21491,1.4140625,0.205078125,5,0,3,15,7,700.774475097656,661.508728027344,0,1,faces,male,1,0,faces,P,female,VS,F,18,J11,71.587890625
0,1,0,21493,1.828125,0.173828125,6,0,4,21,9,727.530212402344,329.661315917969,0,1,faces,female,1,0,faces,P,female,VS,F,18,J11,71.587890625
0,0,0,21495,2.208984375,0.65625,7,0,1,2,11,532.997741699219,238.814712524414,1,0,NaN,NaN,1,0,faces,P,female,VS,F,18,J11,71.587890625
1,0,0,21496,2.93359375,0.3125,8,0,12,56,12,1141.29345703125,246.07746887207,0,1,faces,female,1,0,faces,P,female,VS,F,18,J11,71.587890625
0,0,0,21497,3.27734375,0.380859375,9,0,10,47,13,1062.47045898438,238.884292602539,0,1,faces,female,1,0,faces,P,female,VS,F,18,J11,71.587890625
2,0,0,21498,3.6875,0.416015625,10,0,12,56,14,1163.91516113281,251.289886474609,0,1,faces,female,1,0,faces,P,female,VS,F,18,J11,71.587890625
1,1,0,21511,0.45703125,0.203125,1,1,6,22,2,749.926818847656,442.147125244141,0,1,faces,female,0,1,faces,A,female,EX,F,19,J11,75.787109375
0,1,0,21512,0.6953125,0.275390625,2,1,5,12,3,632.301635742188,315.143280029297,0,1,objects,small,0,1,faces,A,female,EX,F,19,J11,75.787109375
0,1,0,21515,1.421875,0.255859375,3,1,11,62,6,1204.24157714844,852.225708007812,0,1,faces,male,0,1,faces,A,female,EX,F,19,J11,75.787109375
0,1,0,21516,1.7109375,0.248046875,4,1,9,53,7,1084.15051269531,845.8388671875,0,1,objects,big,0,1,faces,A,female,EX,F,19,J11,75.787109375
0,1,0,21517,2.013671875,0.294921875,5,0,13,69,8,1278.08679199219,642.160461425781,0,1,faces,female,0,1,faces,A,female,EX,F,19,J11,75.787109375
0,1,0,21518,2.33984375,0.509765625,6,0,12,68,9,1287.61645507812,564.006896972656,0,1,objects,small,0,1,faces,A,female,EX,F,19,J11,75.787109375
0,1,1,21519,2.916015625,0.181640625,7,0,2,7,10,559.7216796875,716.584411621094,0,1,faces,female,0,1,faces,A,female,EX,F,19,J11,75.787109375
2,1,0,21521,3.32421875,0.162109375,8,0,6,22,12,771.735595703125,426.215698242188,0,1,faces,female,0,1,faces,A,female,EX,F,19,J11,75.787109375
0,1,0,21522,3.5234375,0.2578125,9,0,4,11,13,643.847412109375,260.075805664062,0,1,faces,female,0,1,faces,A,female,EX,F,19,J11,75.787109375
0,1,0,21538,0.45703125,0.193359375,1,1,6,31,2,878.394836425781,467.663116455078,0,1,faces,female,1,0,faces,P,male,VS,I,20,J11,79.986328125
0,1,1,21539,0.708984375,0.146484375,2,1,14,67,3,1302.9677734375,484.24462890625,0,1,faces,female,1,0,faces,P,male,VS,I,20,J11,79.986328125
0,1,0,21541,1.09765625,0.2109375,3,1,10,48,5,1031.12023925781,290.208251953125,0,1,faces,female,1,0,faces,P,male,VS,I,20,J11,79.986328125
0,1,0,21543,1.6015625,0.26953125,4,1,4,15,7,671.880310058594,653.68115234375,0,1,faces,male,1,0,faces,P,male,VS,I,20,J11,79.986328125
0,1,0,21544,1.91015625,0.291015625,5,0,7,32,8,892.331909179688,558.241027832031,0,1,objects,small,1,0,faces,P,male,VS,I,20,J11,79.986328125
0,1,0,21546,2.416015625,0.390625,6,0,3,11,10,638.859252929688,235.162658691406,0,1,faces,male,1,0,faces,P,male,VS,I,20,J11,79.986328125
0,1,0,21548,3.0078125,0.375,7,0,12,54,12,1028.84948730469,941.971984863281,0,1,objects,big,1,0,faces,P,male,VS,I,20,J11,79.986328125
0,1,0,21549,3.41796875,0.318359375,8,0,9,44,13,961.780029296875,854.004333496094,0,1,objects,small,1,0,faces,P,male,VS,I,20,J11,79.986328125
0,1,0,21550,3.775390625,0.146484375,9,0,11,51,14,1104.50073242188,652.475402832031,1,0,NaN,NaN,1,0,faces,P,male,VS,I,20,J11,79.986328125
0,1,1,21559,0.32421875,0.169921875,1,1,3,25,1,788.323181152344,726.164978027344,0,1,faces,male,0,1,faces,A,male,EX,I,21,J11,84.185546875
0,1,1,21561,0.84765625,0.248046875,2,1,1,4,3,548.54248046875,477.154327392578,0,1,objects,big,0,1,faces,A,male,EX,I,21,J11,84.185546875
0,1,0,21564,1.68359375,0.248046875,3,1,11,48,6,1052.86145019531,357.709777832031,0,1,faces,male,0,1,faces,A,male,EX,I,21,J11,84.185546875
0,1,1,21565,1.97265625,0.271484375,4,1,6,29,7,822.131591796875,231.965408325195,0,1,faces,male,0,1,faces,A,male,EX,I,21,J11,84.185546875
0,1,0,21568,2.896484375,0.580078125,5,0,13,59,10,1181.95129394531,561.102905273438,0,1,objects,big,0,1,faces,A,male,EX,I,21,J11,84.185546875
0,1,0,21570,3.81640625,0.927734375,6,0,8,36,12,860.291381835938,939.338989257812,0,1,objects,small,0,1,faces,A,male,EX,I,21,J11,84.185546875
0,1,1,21582,0.322265625,0.177734375,1,1,4,23,2,731.949462890625,542.047668457031,0,1,faces,male,1,0,faces,P,male,VS,F,22,J11,88.384765625
0,1,0,21584,0.724609375,0.283203125,2,1,1,13,4,647.975830078125,449.76806640625,0,1,faces,female,1,0,faces,P,male,VS,F,22,J11,88.384765625
0,1,0,21585,1.064453125,0.345703125,3,1,5,26,5,746.5576171875,841.125793457031,0,1,faces,male,1,0,faces,P,male,VS,F,22,J11,88.384765625
0,1,0,21586,1.451171875,0.2109375,4,1,2,15,6,660.854309082031,650.371520996094,0,1,faces,female,1,0,faces,P,male,VS,F,22,J11,88.384765625
0,0,0,21588,1.962890625,1.11328125,5,0,10,61,8,1174.77453613281,755.39697265625,1,0,NaN,NaN,1,0,faces,P,male,VS,F,22,J11,88.384765625
0,0,0,21589,3.138671875,0.3203125,6,0,13,67,9,1307.93041992188,411.849700927734,0,1,faces,female,1,0,faces,P,male,VS,F,22,J11,88.384765625
0,0,1,21590,3.49609375,0.1875,7,0,12,65,10,1231.86877441406,256.022003173828,0,1,faces,male,1,0,faces,P,male,VS,F,22,J11,88.384765625
0,1,0,21604,0.310546875,0.29296875,1,1,7,60,1,1172.43286132812,635.201171875,0,1,faces,male,0,1,faces,A,female,EX,I,23,J11,92.583984375
0,1,1,21605,0.642578125,0.234375,2,1,6,39,2,995.259765625,379.059967041016,0,1,faces,female,0,1,faces,A,female,EX,I,23,J11,92.583984375
0,1,0,21608,1.4765625,0.21484375,3,1,11,70,5,1260.77685546875,749.957580566406,0,1,faces,female,0,1,faces,A,female,EX,I,23,J11,92.583984375
0,1,1,21609,1.71875,0.189453125,4,1,14,78,6,1371.28015136719,684.606689453125,0,1,faces,male,0,1,faces,A,female,EX,I,23,J11,92.583984375
0,1,0,21611,2.232421875,0.32421875,5,0,12,71,8,1265.83068847656,862.670288085938,0,1,faces,male,0,1,faces,A,female,EX,I,23,J11,92.583984375
0,1,0,21612,2.59765625,0.294921875,6,0,15,80,9,1371.34033203125,864.097900390625,0,1,faces,male,0,1,faces,A,female,EX,I,23,J11,92.583984375
0,1,0,21613,2.958984375,0.26953125,7,0,13,74,10,1319.82165527344,202.222808837891,0,1,faces,female,0,1,faces,A,female,EX,I,23,J11,92.583984375
0,1,0,21614,3.255859375,0.33203125,8,0,10,65,11,1243.40368652344,238.391403198242,0,1,faces,male,0,1,faces,A,female,EX,I,23,J11,92.583984375
0,1,0,21616,3.853515625,0.259765625,9,0,2,5,13,548.975708007812,564.373718261719,0,1,faces,female,0,1,faces,A,female,EX,I,23,J11,92.583984375
1,1,0,21628,0.263671875,0.201171875,1,1,9,32,1,897.936828613281,556.622131347656,0,1,faces,male,0,0,objects,A,big,VS,O,24,J11,96.783203125
0,1,0,21630,0.75390625,0.19921875,2,1,1,2,3,554.426330566406,219.103317260742,0,1,objects,small,0,0,objects,A,big,VS,O,24,J11,96.783203125
0,1,0,21632,1.29296875,0.244140625,3,1,8,26,5,726.301696777344,845.964172363281,0,1,objects,big,0,0,objects,A,big,VS,O,24,J11,96.783203125
1,1,0,21633,1.58984375,0.21875,4,1,4,15,6,633.845275878906,664.796325683594,0,1,objects,big,0,0,objects,A,big,VS,O,24,J11,96.783203125
0,1,0,21634,1.87109375,0.236328125,5,0,14,71,7,1237.29187011719,793.027160644531,0,1,faces,male,0,0,objects,A,big,VS,O,24,J11,96.783203125
0,1,0,21635,2.158203125,0.255859375,6,0,12,54,8,1037.1982421875,963.808166503906,0,1,faces,male,0,0,objects,A,big,VS,O,24,J11,96.783203125
2,1,0,21636,2.474609375,0.19921875,7,0,4,15,9,653.780395507812,633.512878417969,0,1,objects,big,0,0,objects,A,big,VS,O,24,J11,96.783203125
0,1,0,21637,2.705078125,0.279296875,8,0,2,5,10,548.93212890625,553.378295898438,0,1,faces,female,0,0,objects,A,big,VS,O,24,J11,96.783203125
0,1,1,21638,3.046875,0.33203125,9,0,5,18,11,667.267333984375,901.105773925781,0,1,faces,female,0,0,objects,A,big,VS,O,24,J11,96.783203125
0,1,0,21640,3.703125,0.2109375,10,0,11,41,13,945.921813964844,574.314453125,0,1,faces,male,0,0,objects,A,big,VS,O,24,J11,96.783203125
2,1,0,21641,3.9453125,0.166015625,11,0,9,32,14,867.129150390625,553.104675292969,0,1,faces,male,0,0,objects,A,big,VS,O,24,J11,96.783203125
0,1,0,21653,0.615234375,0.294921875,1,1,7,26,2,733.545837402344,835.613647460938,0,1,faces,female,1,0,objects,P,small,VS,O,25,J11,100.982421875
0,1,0,21654,0.94921875,0.1484375,2,1,3,9,3,564.788818359375,902.709594726562,0,1,faces,female,1,0,objects,P,small,VS,O,25,J11,100.982421875
0,1,0,21656,1.28125,0.154296875,3,1,6,25,5,751.207153320312,752.953796386719,0,1,objects,big,1,0,objects,P,small,VS,O,25,J11,100.982421875
0,1,0,21657,1.494140625,0.396484375,4,1,12,60,6,1199.66333007812,663.862243652344,0,1,objects,small,1,0,objects,P,small,VS,O,25,J11,100.982421875
0,1,0,21659,2.21484375,0.23828125,5,0,9,55,8,1129.93969726562,158.408203125,0,1,objects,small,1,0,objects,P,small,VS,O,25,J11,100.982421875
0,0,0,21661,2.658203125,0.462890625,6,0,13,62,10,1132.15515136719,870.640808105469,1,0,NaN,NaN,1,0,objects,P,small,VS,O,25,J11,100.982421875
0,1,0,21677,0.353515625,0.2578125,1,1,12,44,1,923.358093261719,882.140991210938,0,1,faces,female,0,1,objects,A,big,EX,O,26,J11,105.181640625
0,1,0,21679,0.82421875,0.30078125,2,1,3,14,3,626.409729003906,516.084533691406,0,1,faces,female,0,1,objects,A,big,EX,O,26,J11,105.181640625
0,1,0,21680,1.169921875,0.1796875,3,1,7,23,4,765.7734375,531.103759765625,0,1,objects,big,0,1,objects,A,big,EX,O,26,J11,105.181640625
0,1,0,21683,1.87109375,0.302734375,4,1,8,24,7,752.978942871094,652.738708496094,0,1,objects,big,0,1,objects,A,big,EX,O,26,J11,105.181640625
0,1,0,21685,2.572265625,0.173828125,5,0,9,37,9,922.697448730469,136.597091674805,0,1,objects,small,0,1,objects,A,big,EX,O,26,J11,105.181640625
0,1,0,21698,0.580078125,0.3046875,1,1,1,2,2,569.103271484375,229.364105224609,0,1,objects,small,0,0,faces,P,female,VS,I,27,J11,109.380859375
0,1,0,21700,1.267578125,0.1640625,2,1,5,27,4,734.961730957031,935.42333984375,0,1,faces,female,0,0,faces,P,female,VS,I,27,J11,109.380859375
0,1,0,21701,1.482421875,0.388671875,3,1,8,45,5,969.391235351562,928.188110351562,0,1,faces,female,0,0,faces,P,female,VS,I,27,J11,109.380859375
0,1,0,21702,1.91015625,0.166015625,4,1,4,26,6,764.707885742188,851.020141601562,0,1,faces,female,0,0,faces,P,female,VS,I,27,J11,109.380859375
0,1,0,21704,2.37109375,0.220703125,5,0,14,75,8,1336.87805175781,343.448089599609,0,1,faces,male,0,0,faces,P,female,VS,I,27,J11,109.380859375
0,1,0,21705,2.640625,0.205078125,6,0,13,73,9,1312.59216308594,148.29557800293,0,1,objects,small,0,0,faces,P,female,VS,I,27,J11,109.380859375
0,1,0,21706,2.904296875,0.26171875,7,0,15,77,10,1364.41979980469,559.559143066406,0,1,faces,male,0,0,faces,P,female,VS,I,27,J11,109.380859375
0,1,0,21710,3.71875,0.298828125,8,0,6,32,14,830.408203125,536.539978027344,0,1,objects,big,0,0,faces,P,female,VS,I,27,J11,109.380859375
1,1,0,21717,0.294921875,0.3046875,1,1,6,32,1,871.449340820312,495.217803955078,0,1,faces,male,0,0,faces,A,male,VS,I,28,J11,113.580078125
1,1,0,21718,0.650390625,0.25,2,1,1,2,2,602.693603515625,250.385437011719,0,1,faces,female,0,0,faces,A,male,VS,I,28,J11,113.580078125
2,1,0,21720,1.09375,0.6171875,3,1,1,2,4,609.752502441406,210.392776489258,0,1,faces,female,0,0,faces,A,male,VS,I,28,J11,113.580078125
0,1,0,21721,1.77734375,0.2734375,4,1,9,57,5,1182.31848144531,329.197784423828,0,1,objects,big,0,0,faces,A,male,VS,I,28,J11,113.580078125
0,1,0,21724,2.49609375,0.224609375,5,0,15,77,8,1370.49157714844,578.097839355469,0,1,objects,big,0,0,faces,A,male,VS,I,28,J11,113.580078125
0,1,0,21725,2.779296875,0.23828125,6,0,11,63,9,1166.54870605469,910.496948242188,0,1,objects,small,0,0,faces,A,male,VS,I,28,J11,113.580078125
0,1,0,21726,3.052734375,0.205078125,7,0,8,53,10,1041.99450683594,833.870361328125,0,1,faces,female,0,0,faces,A,male,VS,I,28,J11,113.580078125
2,1,1,21727,3.314453125,0.203125,8,0,6,32,11,855.403930664062,567.108032226562,0,1,faces,male,0,0,faces,A,male,VS,I,28,J11,113.580078125
0,1,0,21729,3.7265625,0.185546875,9,0,5,31,13,846.701477050781,453.041412353516,0,1,faces,female,0,0,faces,A,male,VS,I,28,J11,113.580078125
0,1,0,21743,0.263671875,0.201171875,1,1,11,47,1,1017.09338378906,238.427993774414,0,1,faces,male,1,0,faces,P,female,VS,F,29,J11,117.779296875
0,1,0,21744,0.5234375,0.322265625,2,1,2,2,2,552.48974609375,213.281692504883,0,1,faces,male,1,0,faces,P,female,VS,F,29,J11,117.779296875
0,1,0,21747,1.271484375,0.234375,3,1,4,8,5,543.667175292969,823.404541015625,0,1,faces,female,1,0,faces,P,female,VS,F,29,J11,117.779296875
0,1,0,21748,1.5234375,0.150390625,4,1,5,16,6,671.868286132812,728.91015625,0,1,faces,male,1,0,faces,P,female,VS,F,29,J11,117.779296875
0,1,0,21749,1.728515625,0.24609375,5,0,7,31,7,820.595581054688,468.099578857422,0,1,objects,small,1,0,faces,P,female,VS,F,29,J11,117.779296875
0,1,1,21751,2.208984375,0.17578125,6,0,10,41,9,961.148071289062,527.370849609375,0,1,faces,male,1,0,faces,P,female,VS,F,29,J11,117.779296875
0,1,0,21754,2.88671875,0.25390625,7,0,14,77,12,1361.18798828125,582.450378417969,0,1,objects,big,1,0,faces,P,female,VS,F,29,J11,117.779296875
0,1,1,21755,3.201171875,0.177734375,8,0,9,35,13,834.8623046875,874.623107910156,1,0,NaN,NaN,1,0,faces,P,female,VS,F,29,J11,117.779296875
0,1,0,21767,0.2578125,0.20703125,1,1,5,34,1,833.594055175781,737.780822753906,0,1,objects,big,0,0,faces,P,female,VS,F,30,J11,121.978515625
1,1,0,21768,0.517578125,0.197265625,2,1,3,18,2,620.405456542969,910.637939453125,0,1,faces,male,0,0,faces,P,female,VS,F,30,J11,121.978515625
0,1,0,21769,0.748046875,0.271484375,3,1,4,26,3,764.91162109375,814.786865234375,0,1,faces,female,0,0,faces,P,female,VS,F,30,J11,121.978515625
2,1,0,21770,1.064453125,0.287109375,4,1,3,18,4,655.904907226562,902.681518554688,0,1,faces,male,0,0,faces,P,female,VS,F,30,J11,121.978515625
0,1,0,21771,1.412109375,0.404296875,5,0,12,62,5,1128.65515136719,863.750122070312,0,1,faces,male,0,0,faces,P,female,VS,F,30,J11,121.978515625
0,1,0,21772,1.845703125,0.240234375,6,0,9,53,6,1060.95690917969,843.773254394531,0,1,faces,female,0,0,faces,P,female,VS,F,30,J11,121.978515625
0,1,0,21773,2.12890625,0.154296875,7,0,13,63,7,1149.70141601562,945.550720214844,0,1,faces,female,0,0,faces,P,female,VS,F,30,J11,121.978515625
1,1,0,21775,2.517578125,0.201171875,8,0,10,57,9,1129.69140625,340.013031005859,0,1,faces,male,0,0,faces,P,female,VS,F,30,J11,121.978515625
0,1,0,21777,2.93359375,0.396484375,9,0,15,77,11,1354.36486816406,565.136169433594,0,1,faces,female,0,0,faces,P,female,VS,F,30,J11,121.978515625
2,1,0,21778,3.37109375,0.27734375,10,0,10,57,12,1144.93811035156,383.126617431641,0,1,faces,male,0,0,faces,P,female,VS,F,30,J11,121.978515625
0,1,0,21779,3.6796875,0.296875,11,0,7,48,13,1031.92541503906,352.022888183594,0,1,faces,female,0,0,faces,P,female,VS,F,30,J11,121.978515625
0,1,0,21790,0.40625,0.220703125,1,1,4,14,2,707.301635742188,569.038757324219,0,1,faces,female,1,0,faces,P,female,VS,I,31,J11,126.177734375
1,1,0,21792,0.904296875,0.240234375,2,1,7,17,4,613.496032714844,860.515930175781,0,1,faces,male,1,0,faces,P,female,VS,I,31,J11,126.177734375
0,1,0,21793,1.1796875,0.19140625,3,1,6,16,5,631.119812011719,776.687316894531,1,0,NaN,NaN,1,0,faces,P,female,VS,I,31,J11,126.177734375
0,1,0,21794,1.431640625,0.30859375,4,1,13,61,6,1124.99108886719,756.147033691406,0,1,faces,female,1,0,faces,P,female,VS,I,31,J11,126.177734375
0,1,0,21795,1.796875,0.279296875,5,0,14,67,7,1253.46740722656,467.183135986328,0,1,faces,male,1,0,faces,P,female,VS,I,31,J11,126.177734375
0,1,0,21796,2.12890625,0.216796875,6,0,12,56,8,1151.99609375,194.609405517578,0,1,objects,big,1,0,faces,P,female,VS,I,31,J11,126.177734375
0,1,0,21797,2.39453125,0.37890625,7,0,11,38,9,913.263916015625,220.178512573242,0,1,faces,female,1,0,faces,P,female,VS,I,31,J11,126.177734375
0,1,0,21798,2.830078125,0.216796875,8,0,1,1,10,527.425659179688,125.234512329102,0,1,faces,male,1,0,faces,P,female,VS,I,31,J11,126.177734375
2,1,0,21802,3.58984375,0.2890625,9,0,7,17,14,657.826354980469,831.079406738281,0,1,faces,male,1,0,faces,P,female,VS,I,31,J11,126.177734375
0,1,1,21815,0.265625,0.146484375,1,1,2,13,1,671.021240234375,441.312042236328,0,1,faces,male,1,0,faces,P,female,VS,F,32,J11,130.376953125
0,1,1,21817,0.595703125,0.15234375,2,1,1,12,3,639.05126953125,325.518493652344,1,0,NaN,NaN,1,0,faces,P,female,VS,F,32,J11,130.376953125
0,0,0,21819,1.6328125,0.294921875,3,1,8,38,5,941.748657226562,240.886383056641,0,1,faces,male,1,0,faces,P,female,VS,F,32,J11,130.376953125
1,0,0,21823,2.6171875,0.169921875,4,1,10,44,9,936.956604003906,856.790405273438,0,1,faces,female,1,0,faces,P,female,VS,F,32,J11,130.376953125
0,0,1,21824,2.8359375,0.1484375,5,0,4,27,10,758.342041015625,956.49072265625,0,1,faces,male,1,0,faces,P,female,VS,F,32,J11,130.376953125
2,0,0,21826,3.302734375,0.251953125,6,0,10,44,12,958.03564453125,843.677551269531,0,1,faces,female,1,0,faces,P,female,VS,F,32,J11,130.376953125
0,0,0,21827,3.607421875,0.216796875,7,0,14,70,13,1232.26684570312,768.751647949219,0,1,faces,female,1,0,faces,P,female,VS,F,32,J11,130.376953125
0,1,0,21841,0.484375,0.16015625,1,1,2,21,2,765.789733886719,305.367980957031,0,1,objects,small,1,0,objects,P,small,VS,O,33,J11,134.576171875
1,0,0,21843,2.017578125,0.421875,2,1,10,61,4,1173.16967773438,746.642333984375,1,0,NaN,NaN,1,0,objects,P,small,VS,O,33,J11,134.576171875
0,0,0,21844,2.470703125,0.2578125,3,1,11,62,5,1145.59655761719,825.417297363281,0,1,faces,female,1,0,objects,P,small,VS,O,33,J11,134.576171875
0,0,0,21845,2.759765625,0.25390625,4,1,13,71,6,1257.74743652344,848.114318847656,0,1,faces,male,1,0,objects,P,small,VS,O,33,J11,134.576171875
2,0,0,21846,3.05078125,0.287109375,5,0,10,61,7,1170.41516113281,733.927856445312,1,0,NaN,NaN,1,0,objects,P,small,VS,O,33,J11,134.576171875
0,0,1,21847,3.384765625,0.169921875,6,0,14,78,8,1388.94580078125,674.09228515625,0,1,faces,male,1,0,objects,P,small,VS,O,33,J11,134.576171875
0,0,0,21849,3.79296875,0.171875,7,0,9,57,10,1193.86145019531,321.411529541016,0,1,objects,small,1,0,objects,P,small,VS,O,33,J11,134.576171875
0,1,1,21860,0.224609375,0.15625,1,1,7,50,1,1033.02160644531,503.651062011719,0,1,faces,female,0,0,faces,A,female,EX,F,34,J11,138.775390625
0,1,1,21862,0.55859375,0.548828125,2,1,3,24,3,732.266052246094,620.610229492188,0,1,objects,big,0,0,faces,A,female,EX,F,34,J11,138.775390625
0,1,0,21864,1.380859375,0.1328125,3,1,2,5,5,516.32080078125,503.771545410156,0,1,objects,small,0,0,faces,A,female,EX,F,34,J11,138.775390625
0,1,0,21866,1.92578125,0.1953125,4,1,14,73,7,1325.60485839844,135.332550048828,0,1,objects,big,0,0,faces,A,female,EX,F,34,J11,138.775390625
0,1,0,21868,2.404296875,0.388671875,5,0,6,45,9,990.408508300781,919.997436523438,0,1,faces,male,0,0,faces,A,female,EX,F,34,J11,138.775390625
0,1,0,21869,2.83203125,0.373046875,6,0,4,36,10,857.539611816406,920.539489746094,0,1,faces,female,0,0,faces,A,female,EX,F,34,J11,138.775390625
0,1,0,21871,3.45703125,0.3046875,7,0,11,61,12,1152.58911132812,752.794799804688,0,1,faces,male,0,0,faces,A,female,EX,F,34,J11,138.775390625
0,1,1,21881,0.28515625,0.115234375,1,1,7,33,2,819.186157226562,601.221069335938,0,1,faces,male,0,0,faces,A,female,VS,I,35,J11,142.974609375
0,1,0,21883,0.72265625,1.02734375,2,1,5,25,4,749.520385742188,735.42041015625,0,1,faces,female,0,0,faces,A,female,VS,I,35,J11,142.974609375
0,1,0,21884,1.81640625,0.287109375,3,1,15,79,5,1318.28356933594,705.748718261719,0,1,faces,female,0,0,faces,A,female,VS,I,35,J11,142.974609375
0,1,0,21885,2.1328125,0.232421875,4,1,10,69,6,1258.76135253906,661.446960449219,0,1,faces,female,0,0,faces,A,female,VS,I,35,J11,142.974609375
0,1,0,21886,2.412109375,0.34765625,5,0,12,71,7,1250.27734375,853.972351074219,0,1,faces,female,0,0,faces,A,female,VS,I,35,J11,142.974609375
0,1,1,21887,2.806640625,0.158203125,6,0,14,77,8,1348.18078613281,579.75537109375,0,1,objects,small,0,0,faces,A,female,VS,I,35,J11,142.974609375
0,1,0,21890,3.419921875,0.212890625,7,0,6,29,11,827.578369140625,226.513046264648,0,1,objects,small,0,0,faces,A,female,VS,I,35,J11,142.974609375
0,1,1,21891,3.6875,0.21875,8,0,2,5,12,573.500366210938,496.466156005859,0,1,faces,male,0,0,faces,A,female,VS,I,35,J11,142.974609375
0,1,0,21906,0.326171875,0.169921875,1,1,9,49,2,1047.90710449219,455.416839599609,0,1,faces,female,1,0,faces,P,male,VS,F,36,J11,147.173828125
1,0,0,21908,0.798828125,0.27734375,2,1,11,55,4,1145.60913085938,133.362213134766,1,0,NaN,NaN,1,0,faces,P,male,VS,F,36,J11,147.173828125
2,0,1,21910,1.265625,0.19140625,3,1,11,55,6,1138.55847167969,114.334533691406,1,0,NaN,NaN,1,0,faces,P,male,VS,F,36,J11,147.173828125
0,0,1,21912,2.498046875,0.134765625,4,1,12,62,8,1128.23583984375,876.886352539062,0,1,objects,big,1,0,faces,P,male,VS,F,36,J11,147.173828125
0,0,0,21914,2.884765625,0.19921875,5,0,5,27,10,778.081359863281,921.628723144531,0,1,faces,male,1,0,faces,P,male,VS,F,36,J11,147.173828125
0,0,0,21915,3.1328125,0.220703125,6,0,7,34,11,875.214111328125,725.136596679688,0,1,objects,big,1,0,faces,P,male,VS,F,36,J11,147.173828125
0,0,1,21916,3.39453125,0.14453125,7,0,4,15,12,617.09375,646.93603515625,0,1,faces,male,1,0,faces,P,male,VS,F,36,J11,147.173828125
0,0,0,21918,3.818359375,0.2734375,8,0,1,4,14,525.567565917969,443.81640625,0,1,faces,female,1,0,faces,P,male,VS,F,36,J11,147.173828125
0,1,1,21932,0.248046875,0.369140625,1,1,6,33,1,866.635314941406,612.421447753906,0,1,faces,female,0,1,faces,A,male,EX,F,37,J11,151.373046875
0,1,0,21934,1.248046875,0.23046875,2,1,9,60,3,1156.00939941406,642.631164550781,0,1,objects,big,0,1,faces,A,male,EX,F,37,J11,151.373046875
1,1,0,21935,1.5390625,0.1796875,3,1,7,38,4,944.519775390625,272.802276611328,0,1,faces,male,0,1,faces,A,male,EX,F,37,J11,151.373046875
0,1,0,21936,1.75,0.3515625,4,1,8,47,5,1024.28918457031,222.756439208984,0,1,objects,small,0,1,faces,A,male,EX,F,37,J11,151.373046875
2,1,1,21937,2.130859375,0.240234375,5,0,7,38,6,939.181030273438,224.25358581543,0,1,faces,male,0,1,faces,A,male,EX,F,37,J11,151.373046875
0,1,0,21939,2.669921875,0.330078125,6,0,5,30,8,834.7080078125,337.130828857422,0,1,faces,male,0,1,faces,A,male,EX,F,37,J11,151.373046875
0,1,1,21940,3.04296875,0.154296875,7,0,4,13,9,616.434265136719,457.095031738281,0,1,objects,small,0,1,faces,A,male,EX,F,37,J11,151.373046875
0,1,1,21942,3.552734375,0.16015625,8,0,2,8,11,557.180236816406,838.77294921875,0,1,faces,female,0,1,faces,A,male,EX,F,37,J11,151.373046875
0,1,0,21956,0.7734375,0.173828125,1,1,6,34,3,852.397216796875,740.541870117188,0,1,faces,female,1,0,objects,P,big,VS,O,38,J11,155.572265625
0,1,0,21957,0.982421875,0.29296875,2,1,10,42,4,953.67041015625,629.970703125,0,1,faces,male,1,0,objects,P,big,VS,O,38,J11,155.572265625
0,1,0,21958,1.33203125,0.26953125,3,1,4,18,5,667.575317382812,944.059814453125,0,1,faces,female,1,0,objects,P,big,VS,O,38,J11,155.572265625
0,1,0,21960,1.8359375,0.197265625,4,1,2,6,7,551.310119628906,610.010070800781,0,1,objects,big,1,0,objects,P,big,VS,O,38,J11,155.572265625
0,1,0,21961,2.07421875,0.205078125,5,0,3,13,8,620.61865234375,436.876220703125,0,1,faces,male,1,0,objects,P,big,VS,O,38,J11,155.572265625
0,0,0,21963,2.6328125,0.583984375,6,0,1,4,10,543.211242675781,434.925964355469,1,0,NaN,NaN,1,0,objects,P,big,VS,O,38,J11,155.572265625
0,0,0,21966,3.796875,0.279296875,7,0,8,37,13,918.221374511719,124.465919494629,0,1,faces,male,1,0,objects,P,big,VS,O,38,J11,155.572265625
0,1,0,21974,0.29296875,0.12109375,1,1,6,30,1,830.355285644531,355.160827636719,0,1,faces,female,1,0,objects,P,big,VS,O,39,J11,159.771484375
0,0,0,21978,1.138671875,0.529296875,2,1,4,9,5,557.6337890625,930.0732421875,1,0,NaN,NaN,1,0,objects,P,big,VS,O,39,J11,159.771484375
0,0,0,21979,1.705078125,0.23828125,3,1,5,27,6,725.916748046875,920.618957519531,0,1,faces,male,1,0,objects,P,big,VS,O,39,J11,159.771484375
0,0,1,21980,2.001953125,0.220703125,4,1,7,32,7,854.8251953125,560.581604003906,0,1,objects,small,1,0,objects,P,big,VS,O,39,J11,159.771484375
0,0,1,21982,2.595703125,0.23046875,5,0,12,60,9,1190.62072753906,605.386596679688,0,1,objects,big,1,0,objects,P,big,VS,O,39,J11,159.771484375
0,0,0,21984,3.134765625,0.4921875,6,0,13,67,11,1219.85607910156,426.451202392578,0,1,faces,male,1,0,objects,P,big,VS,O,39,J11,159.771484375
0,1,0,21997,0.5859375,0.203125,1,1,5,16,3,643.270385742188,749.022705078125,0,1,faces,male,1,0,faces,P,male,VS,I,40,J11,163.970703125
0,1,0,21998,0.8203125,0.166015625,2,1,3,8,4,561.326721191406,833.10595703125,0,1,faces,male,1,0,faces,P,male,VS,I,40,J11,163.970703125
0,1,0,21999,1.03515625,0.20703125,3,1,2,6,5,603.221435546875,629.543762207031,0,1,objects,big,1,0,faces,P,male,VS,I,40,J11,163.970703125
0,1,0,22000,1.296875,0.1171875,4,1,8,40,6,929.033081054688,485.443878173828,0,1,objects,small,1,0,faces,P,male,VS,I,40,J11,163.970703125
0,1,0,22002,1.677734375,0.18359375,5,0,1,5,8,538.913146972656,529.786437988281,0,1,faces,female,1,0,faces,P,male,VS,I,40,J11,163.970703125
1,0,0,22003,1.908203125,0.234375,6,0,7,23,9,737.794799804688,534.171447753906,1,0,NaN,NaN,1,0,faces,P,male,VS,I,40,J11,163.970703125
0,0,0,22004,2.197265625,0.1015625,7,0,10,50,10,1035.07141113281,513.842834472656,0,1,objects,big,1,0,faces,P,male,VS,I,40,J11,163.970703125
2,0,1,22005,2.349609375,0.13671875,8,0,7,23,11,736.18603515625,515.240295410156,1,0,NaN,NaN,1,0,faces,P,male,VS,I,40,J11,163.970703125
0,0,1,22007,3.376953125,0.21875,9,0,15,67,13,1240.5927734375,455.472229003906,0,1,faces,male,1,0,faces,P,male,VS,I,40,J11,163.970703125
0,0,0,22009,3.779296875,0.34375,10,0,14,65,15,1251.70324707031,199.292098999023,0,1,faces,female,1,0,faces,P,male,VS,I,40,J11,163.970703125
0,1,0,22028,0.52734375,0.365234375,1,1,3,12,2,662.177001953125,299.670776367188,0,1,objects,big,0,0,objects,A,small,VS,O,41,J11,168.169921875
1,1,0,22029,0.9296875,0.1875,2,1,1,2,3,521.984313964844,251.364013671875,0,1,objects,small,0,0,objects,A,small,VS,O,41,J11,168.169921875
0,1,0,22032,1.49609375,0.26171875,3,1,13,75,6,1321.59912109375,382.702117919922,0,1,faces,male,0,0,objects,A,small,VS,O,41,J11,168.169921875
0,1,1,22034,2.193359375,0.498046875,4,1,11,45,8,924.434387207031,927.880493164062,0,1,objects,big,0,0,objects,A,small,VS,O,41,J11,168.169921875
0,1,0,22036,2.89453125,0.236328125,5,0,15,79,10,1355.01196289062,766.0126953125,0,1,faces,female,0,0,objects,A,small,VS,O,41,J11,168.169921875
0,1,1,22037,3.1875,0.140625,6,0,14,76,11,1407.11120605469,470.645935058594,0,1,faces,male,0,0,objects,A,small,VS,O,41,J11,168.169921875
2,1,0,22039,3.529296875,0.244140625,7,0,1,2,13,601.695251464844,239.985855102539,0,1,objects,small,0,0,objects,A,small,VS,O,41,J11,168.169921875
0,1,0,22049,0.4140625,0.22265625,1,1,5,25,2,755.044128417969,756.587646484375,0,1,faces,male,0,0,faces,A,male,VS,F,42,J11,172.369140625
0,1,0,22050,0.68359375,0.23828125,2,1,4,18,3,643.456909179688,950.385131835938,0,1,faces,female,0,0,faces,A,male,VS,F,42,J11,172.369140625
0,1,0,22052,1.154296875,0.16015625,3,1,3,15,5,641.282897949219,650.386413574219,0,1,faces,female,0,0,faces,A,male,VS,F,42,J11,172.369140625
0,1,0,22054,1.548828125,0.234375,4,1,6,31,7,833.382751464844,466.494659423828,0,1,faces,female,0,0,faces,A,male,VS,F,42,J11,172.369140625
0,1,1,22056,2.142578125,0.16796875,5,0,8,47,9,1012.93579101562,229.072448730469,0,1,faces,male,0,0,faces,A,male,VS,F,42,J11,172.369140625
0,1,1,22059,2.794921875,0.208984375,6,0,12,72,12,1303.58422851562,896.011779785156,0,1,objects,small,0,0,faces,A,male,VS,F,42,J11,172.369140625
0,1,0,22061,3.224609375,0.353515625,7,0,11,63,14,1121.46728515625,927.820007324219,0,1,faces,male,0,0,faces,A,male,VS,F,42,J11,172.369140625
0,1,0,22062,3.59375,0.248046875,8,0,10,62,15,1131.15856933594,857.146118164062,0,1,faces,male,0,0,faces,A,male,VS,F,42,J11,172.369140625
0,1,0,22071,0.314453125,0.177734375,1,1,8,41,1,991.411315917969,577.145446777344,0,1,faces,male,0,0,objects,A,big,VS,O,43,J11,176.568359375
1,1,0,22072,0.546875,0.130859375,2,1,12,68,2,1301.06970214844,534.734924316406,0,1,objects,big,0,0,objects,A,big,VS,O,43,J11,176.568359375
0,1,0,22074,0.892578125,0.201171875,3,1,7,36,4,859.386779785156,939.055908203125,0,1,objects,small,0,0,objects,A,big,VS,O,43,J11,176.568359375
0,1,0,22075,1.154296875,0.251953125,4,1,15,80,5,1376.4140625,839.872741699219,0,1,faces,male,0,0,objects,A,big,VS,O,43,J11,176.568359375
0,1,0,22076,1.46484375,0.24609375,5,0,10,51,6,1067.81848144531,604.093872070312,0,1,objects,small,0,0,objects,A,big,VS,O,43,J11,176.568359375
1,1,0,22079,2.265625,0.400390625,6,0,13,76,9,1337.88623046875,445.329559326172,0,1,objects,big,0,0,objects,A,big,VS,O,43,J11,176.568359375
2,1,0,22080,2.71484375,0.12109375,7,0,12,68,10,1259.4814453125,576.486755371094,0,1,objects,big,0,0,objects,A,big,VS,O,43,J11,176.568359375
2,1,1,22081,2.875,0.1171875,8,0,13,76,11,1318.21423339844,486.9794921875,0,1,objects,big,0,0,objects,A,big,VS,O,43,J11,176.568359375
3,1,0,22083,3.548828125,0.37109375,9,0,12,68,13,1252.08349609375,566.91259765625,0,1,objects,big,0,0,objects,A,big,VS,O,43,J11,176.568359375
0,1,0,22095,0.330078125,0.23828125,1,1,6,41,2,972.526184082031,554.135864257812,0,1,faces,female,0,1,faces,A,female,EX,I,44,J11,180.767578125
1,1,0,22096,0.625,0.18359375,2,1,2,20,3,775.053283691406,284.043884277344,0,1,objects,small,0,1,faces,A,female,EX,I,44,J11,180.767578125
0,1,0,22098,1.14453125,0.2265625,3,1,7,44,5,980.876525878906,829.172790527344,0,1,objects,small,0,1,faces,A,female,EX,I,44,J11,180.767578125
0,1,0,22100,1.66015625,0.43359375,4,1,14,74,7,1330.63854980469,248.693771362305,0,1,objects,small,0,1,faces,A,female,EX,I,44,J11,180.767578125
0,1,0,22101,2.15625,0.25390625,5,0,3,29,8,854.687316894531,255.470550537109,0,1,faces,female,0,1,faces,A,female,EX,I,44,J11,180.767578125
2,1,0,22103,2.751953125,0.248046875,6,0,2,20,10,719.372985839844,242.263763427734,0,1,objects,small,0,1,faces,A,female,EX,I,44,J11,180.767578125
0,1,1,22104,3.07421875,0.18359375,7,0,4,34,11,816.069091796875,760.831970214844,0,1,faces,male,0,1,faces,A,female,EX,I,44,J11,180.767578125
0,1,0,22106,3.5078125,0.263671875,8,0,11,50,13,1040.06164550781,519.465026855469,0,1,faces,female,0,1,faces,A,female,EX,I,44,J11,180.767578125
0,1,0,22114,0.39453125,0.142578125,1,1,10,51,2,1036.67846679688,637.0849609375,0,1,objects,small,0,0,faces,A,female,VS,F,45,J11,184.966796875
0,1,1,22115,0.595703125,0.3046875,2,1,4,13,3,633.356567382812,456.633026123047,0,1,faces,female,0,0,faces,A,female,VS,F,45,J11,184.966796875
1,1,0,22117,1.115234375,0.451171875,3,1,6,29,5,823.542846679688,224.188781738281,0,1,faces,female,0,0,faces,A,female,VS,F,45,J11,184.966796875
2,1,0,22119,2.05078125,0.36328125,4,1,6,29,7,819.056945800781,235.402908325195,0,1,faces,female,0,0,faces,A,female,VS,F,45,J11,184.966796875
0,1,0,22120,2.47265625,0.326171875,5,0,11,65,8,1234.28735351562,242.860336303711,0,1,faces,female,0,0,faces,A,female,VS,F,45,J11,184.966796875
0,1,0,22122,3.115234375,0.337890625,6,0,14,72,10,1237.54736328125,956.491333007812,0,1,faces,female,0,0,faces,A,female,VS,F,45,J11,184.966796875
0,1,0,22123,3.484375,0.400390625,7,0,15,81,11,1334.17150878906,946.96142578125,0,1,faces,female,0,0,faces,A,female,VS,F,45,J11,184.966796875
0,0,0,22139,0.703125,0.501953125,1,1,9,40,3,943.733032226562,445.741455078125,1,0,NaN,NaN,1,0,faces,P,female,VS,I,46,J11,189.166015625
0,0,0,22141,1.48046875,0.328125,2,1,7,20,5,716.177612304688,237.611511230469,0,1,faces,male,1,0,faces,P,female,VS,I,46,J11,189.166015625
0,0,0,22143,1.94140625,0.11328125,3,1,5,13,7,620.739990234375,392.680541992188,0,1,objects,big,1,0,faces,P,female,VS,I,46,J11,189.166015625
0,0,0,22144,2.072265625,0.31640625,4,1,4,12,8,626.067016601562,347.962829589844,0,1,faces,male,1,0,faces,P,female,VS,I,46,J11,189.166015625
0,0,0,22145,2.42578125,0.15625,5,0,2,3,9,529.850463867188,314.953582763672,0,1,faces,female,1,0,faces,P,female,VS,I,46,J11,189.166015625
0,0,0,22148,3.3046875,0.1015625,6,0,14,61,12,1125.5458984375,755.248413085938,0,1,faces,male,1,0,faces,P,female,VS,I,46,J11,189.166015625
0,0,0,22149,3.4453125,0.19921875,7,0,12,51,13,1035.82983398438,672.337524414062,0,1,faces,male,1,0,faces,P,female,VS,I,46,J11,189.166015625
0,0,0,22150,3.673828125,0.388671875,8,0,10,42,14,947.786437988281,662.671020507812,0,1,faces,male,1,0,faces,P,female,VS,I,46,J11,189.166015625
0,1,0,22164,0.984375,0.365234375,1,1,6,30,2,840.220520019531,347.090545654297,0,1,faces,female,0,1,objects,A,small,EX,O,47,J11,193.365234375
0,1,0,22165,1.40234375,0.294921875,2,1,1,3,3,515.626525878906,355.836883544922,0,1,faces,female,0,1,objects,A,small,EX,O,47,J11,193.365234375
0,1,0,22167,1.98828125,0.33203125,3,1,4,18,5,662.668090820312,930.641479492188,0,1,faces,female,0,1,objects,A,small,EX,O,47,J11,193.365234375
0,1,0,22168,2.369140625,0.22265625,4,1,7,36,6,865.91015625,935.945556640625,0,1,objects,small,0,1,objects,A,small,EX,O,47,J11,193.365234375
0,1,0,22170,2.83984375,0.1875,5,0,15,81,8,1347.79479980469,941.42822265625,0,1,objects,small,0,1,objects,A,small,EX,O,47,J11,193.365234375
0,1,0,22171,3.05859375,0.33203125,6,0,10,71,9,1239.14929199219,845.489135742188,0,1,faces,male,0,1,objects,A,small,EX,O,47,J11,193.365234375
0,1,0,22172,3.443359375,0.333984375,7,0,14,78,10,1369.74523925781,623.634033203125,0,1,faces,male,0,1,objects,A,small,EX,O,47,J11,193.365234375
0,1,0,22173,3.806640625,0.224609375,8,0,13,77,11,1358.29675292969,563.423767089844,0,1,faces,male,0,1,objects,A,small,EX,O,47,J11,193.365234375
1,1,0,22180,0.2265625,0.431640625,1,1,5,41,1,1001.74523925781,554.922485351562,0,1,objects,big,0,1,faces,A,male,EX,I,48,J11,197.564453125
1,1,1,22181,0.712890625,0.3046875,2,1,10,58,2,1196.69677734375,407.487213134766,0,1,objects,big,0,1,faces,A,male,EX,I,48,J11,197.564453125
0,1,0,22183,1.326171875,0.2734375,3,1,3,9,4,571.626953125,932.456237792969,0,1,objects,small,0,1,faces,A,male,EX,I,48,J11,197.564453125
0,1,0,22184,1.6484375,0.322265625,4,1,4,26,5,761.97265625,831.664672851562,0,1,objects,small,0,1,faces,A,male,EX,I,48,J11,197.564453125
0,1,0,22187,2.48828125,0.138671875,5,0,7,50,8,1011.94342041016,535.539672851562,0,1,faces,male,0,1,faces,A,male,EX,I,48,J11,197.564453125
2,1,0,22188,2.65234375,0.423828125,6,0,5,41,9,956.989318847656,535.305541992188,0,1,objects,big,0,1,faces,A,male,EX,I,48,J11,197.564453125
0,1,0,22190,3.521484375,0.23046875,7,0,12,67,11,1240.6337890625,456.967224121094,0,1,faces,female,0,1,faces,A,male,EX,I,48,J11,197.564453125
0,1,0,22191,3.802734375,0.115234375,8,0,8,56,12,1188.54772949219,288.095489501953,0,1,faces,male,0,1,faces,A,male,EX,I,48,J11,197.564453125
2,1,0,22192,3.953125,0.162109375,9,0,10,58,13,1151.85241699219,407.313995361328,0,1,objects,big,0,1,faces,A,male,EX,I,48,J11,197.564453125
0,1,0,22204,0.392578125,0.185546875,1,1,1,13,1,640.170776367188,425.225616455078,0,1,objects,big,0,1,objects,A,big,VS,O,49,J11,201.763671875
0,1,0,22208,1.322265625,0.23828125,2,1,13,79,5,1329.56823730469,767.640502929688,0,1,objects,small,0,1,objects,A,big,VS,O,49,J11,201.763671875
0,1,0,22209,1.603515625,0.251953125,3,1,8,50,6,1025.32666015625,564.140014648438,0,1,objects,big,0,1,objects,A,big,VS,O,49,J11,201.763671875
1,1,0,22210,1.89453125,0.345703125,4,1,4,39,7,1001.06072998047,308.720245361328,0,1,faces,male,0,1,objects,A,big,VS,O,49,J11,201.763671875
0,1,0,22214,3.080078125,0.2109375,5,0,9,52,11,1039.59619140625,732.458557128906,0,1,faces,female,0,1,objects,A,big,VS,O,49,J11,201.763671875
0,1,1,22215,3.3359375,0.236328125,6,0,11,68,12,1283.046875,506.796569824219,0,1,faces,male,0,1,objects,A,big,VS,O,49,J11,201.763671875
2,1,0,22217,3.78125,0.193359375,7,0,4,39,14,959.2587890625,326.217712402344,0,1,faces,male,0,1,objects,A,big,VS,O,49,J11,201.763671875
0,1,0,22227,0.427734375,0.28515625,1,1,7,40,2,938.05224609375,448.389862060547,0,1,faces,female,1,1,faces,P,female,VS,I,50,J11,205.962890625
1,0,0,22228,0.74609375,0.861328125,2,1,8,50,3,1048.61267089844,551.1884765625,1,0,NaN,NaN,1,1,faces,P,female,VS,I,50,J11,205.962890625
0,0,0,22230,1.86328125,0.2578125,3,1,6,29,5,814.342468261719,225.806442260742,0,1,faces,male,1,1,faces,P,female,VS,I,50,J11,205.962890625
2,0,0,22232,2.32421875,0.482421875,4,1,8,50,7,1040.26782226562,539.80419921875,1,0,NaN,NaN,1,1,faces,P,female,VS,I,50,J11,205.962890625
0,0,1,22233,2.86328125,0.279296875,5,0,14,77,8,1358.76770019531,581.689331054688,0,1,faces,female,1,1,faces,P,female,VS,I,50,J11,205.962890625
0,0,0,22235,3.392578125,0.25390625,6,0,13,74,10,1329.85095214844,240.563659667969,0,1,objects,small,1,1,faces,P,female,VS,I,50,J11,205.962890625
0,0,0,22236,3.68359375,0.23046875,7,0,11,55,11,1115.76916503906,113.704002380371,0,1,faces,male,1,1,faces,P,female,VS,I,50,J11,205.962890625
0,1,0,22245,0.548828125,0.20703125,1,1,10,59,3,1147.34326171875,565.283264160156,0,1,faces,male,1,1,faces,P,male,VS,I,51,J11,210.162109375
0,1,0,22246,0.8125,0.15625,2,1,8,54,4,1028.74780273438,959.442565917969,0,1,faces,female,1,1,faces,P,male,VS,I,51,J11,210.162109375
0,1,0,22247,0.984375,0.169921875,3,1,6,45,5,997.216674804688,921.638000488281,0,1,faces,male,1,1,faces,P,male,VS,I,51,J11,210.162109375
1,1,0,22249,1.412109375,0.1953125,4,1,11,62,7,1152.5400390625,848.68896484375,1,0,NaN,NaN,1,1,faces,P,male,VS,I,51,J11,210.162109375
0,1,0,22250,1.642578125,0.162109375,5,0,5,44,8,982.897888183594,834.292663574219,0,1,faces,female,1,1,faces,P,male,VS,I,51,J11,210.162109375
2,0,0,22251,1.83984375,0.515625,6,0,11,62,9,1146.62890625,831.637268066406,1,0,NaN,NaN,1,1,faces,P,male,VS,I,51,J11,210.162109375
0,0,0,22252,2.42578125,0.2734375,7,0,9,56,10,1139.68603515625,222.892395019531,0,1,faces,male,1,1,faces,P,male,VS,I,51,J11,210.162109375
0,0,0,22254,3.1875,0.169921875,8,0,1,15,12,634.869995117188,687.867431640625,0,1,objects,big,1,1,faces,P,male,VS,I,51,J11,210.162109375
1,1,0,22267,0.4375,0.212890625,1,1,12,53,2,1033.93493652344,861.843078613281,0,1,faces,male,0,1,faces,A,male,VS,I,52,J11,214.361328125
0,1,0,22268,0.662109375,0.26953125,2,1,13,54,3,1034.26965332031,935.766845703125,0,1,faces,male,0,1,faces,A,male,VS,I,52,J11,214.361328125
2,1,0,22269,0.951171875,0.201171875,3,1,12,53,4,1039.23889160156,836.817504882812,0,1,faces,male,0,1,faces,A,male,VS,I,52,J11,214.361328125
1,1,0,22270,1.193359375,0.279296875,4,1,6,26,5,753.8974609375,851.808654785156,0,1,faces,male,0,1,faces,A,male,VS,I,52,J11,214.361328125
1,1,0,22271,1.4921875,0.244140625,5,0,5,25,6,747.531005859375,743.460510253906,0,1,faces,female,0,1,faces,A,male,VS,I,52,J11,214.361328125
2,1,0,22272,1.76171875,0.29296875,6,0,6,26,7,753.23974609375,827.703796386719,0,1,faces,male,0,1,faces,A,male,VS,I,52,J11,214.361328125
0,1,0,22273,2.083984375,0.2109375,7,0,7,35,8,850.224243164062,824.359375,0,1,faces,female,0,1,faces,A,male,VS,I,52,J11,214.361328125
2,1,0,22274,2.314453125,0.3359375,8,0,5,25,9,750.237060546875,734.025329589844,0,1,faces,female,0,1,faces,A,male,VS,I,52,J11,214.361328125
0,1,1,22275,2.69140625,0.171875,9,0,2,4,10,548.559753417969,479.032012939453,0,1,faces,male,0,1,faces,A,male,VS,I,52,J11,214.361328125
0,1,0,22277,3.1328125,0.1953125,10,0,1,1,12,510.497100830078,115.261199951172,0,1,objects,small,0,1,faces,A,male,VS,I,52,J11,214.361328125
0,1,0,22278,3.375,0.2109375,11,0,4,20,13,729.411254882812,218.003936767578,0,1,faces,male,0,1,faces,A,male,VS,I,52,J11,214.361328125
0,1,1,22279,3.65234375,0.25390625,12,0,14,67,14,1211.95654296875,417.639495849609,0,1,faces,male,0,1,faces,A,male,VS,I,52,J11,214.361328125
0,1,0,22289,0.25,0.255859375,1,1,6,34,1,843.784973144531,720.681030273438,0,1,faces,male,0,1,faces,A,male,EX,I,53,J11,218.560546875
0,1,0,22290,0.546875,0.265625,2,1,2,9,2,570.206481933594,907.382080078125,0,1,objects,big,0,1,faces,A,male,EX,I,53,J11,218.560546875
0,1,0,22291,0.8671875,0.25,3,1,1,6,3,542.543395996094,640.919372558594,0,1,faces,male,0,1,faces,A,male,EX,I,53,J11,218.560546875
1,1,0,22292,1.17578125,0.216796875,4,1,4,30,4,901.619140625,360.04052734375,0,1,objects,small,0,1,faces,A,male,EX,I,53,J11,218.560546875
0,1,0,22293,1.41015625,0.404296875,5,0,5,31,5,838.239135742188,412.944091796875,0,1,objects,big,0,1,faces,A,male,EX,I,53,J11,218.560546875
2,1,0,22294,1.837890625,0.328125,6,0,4,30,6,849.04345703125,305.145843505859,0,1,objects,small,0,1,faces,A,male,EX,I,53,J11,218.560546875
0,1,0,22295,2.22265625,0.23046875,7,0,12,67,7,1222.25671386719,430.613128662109,0,1,faces,female,0,1,faces,A,male,EX,I,53,J11,218.560546875
0,1,0,22297,2.732421875,0.265625,8,0,10,64,9,1242.82873535156,112.352279663086,0,1,faces,female,0,1,faces,A,male,EX,I,53,J11,218.560546875
0,1,0,22298,3.05859375,0.234375,9,0,3,19,10,734.669677734375,91.2791290283203,0,1,faces,male,0,1,faces,A,male,EX,I,53,J11,218.560546875
0,1,0,22300,3.54296875,0.43359375,10,0,14,77,12,1364.60791015625,551.650329589844,0,1,objects,big,0,1,faces,A,male,EX,I,53,J11,218.560546875
0,1,0,22314,0.560546875,0.2265625,1,1,2,14,2,636.555725097656,531.137329101562,0,1,faces,female,1,0,faces,P,female,VS,I,54,J11,222.759765625
0,0,1,22315,0.84765625,0.451171875,2,1,3,20,3,739.557006835938,202.470809936523,1,0,NaN,NaN,1,0,faces,P,female,VS,I,54,J11,222.759765625
0,0,0,22317,2.490234375,0.298828125,3,1,5,29,5,821.599243164062,227.196746826172,0,1,faces,female,1,0,faces,P,female,VS,I,54,J11,222.759765625
0,0,0,22318,2.83984375,0.228515625,4,1,9,46,6,1099.75378417969,130.083129882812,0,1,objects,small,1,0,faces,P,female,VS,I,54,J11,222.759765625
0,0,0,22319,3.078125,0.21484375,5,0,11,55,7,1117.9326171875,123.60319519043,0,1,faces,female,1,0,faces,P,female,VS,I,54,J11,222.759765625
0,0,0,22321,3.623046875,0.294921875,6,0,15,81,9,1342.78930664062,917.275329589844,0,1,faces,male,1,0,faces,P,female,VS,I,54,J11,222.759765625
0,0,0,22322,3.9609375,0.4140625,7,0,14,78,10,1381.8369140625,634.546752929688,0,1,faces,female,1,0,faces,P,female,VS,I,54,J11,222.759765625
0,1,0,22334,0.685546875,0.232421875,1,1,2,7,2,586.032043457031,729.72021484375,0,1,faces,female,1,0,faces,P,female,VS,F,55,J11,226.958984375
0,1,0,22335,0.947265625,0.15234375,2,1,1,6,3,552.093933105469,649.665649414062,1,0,NaN,NaN,1,0,faces,P,female,VS,F,55,J11,226.958984375
0,1,0,22336,1.1640625,0.236328125,3,1,13,60,4,1180.68957519531,656.228698730469,0,1,objects,small,1,0,faces,P,female,VS,F,55,J11,226.958984375
0,1,0,22337,1.451171875,0.130859375,4,1,15,72,5,1212.21203613281,949.4697265625,0,1,faces,male,1,0,faces,P,female,VS,F,55,J11,226.958984375
0,1,1,22338,1.638671875,0.158203125,5,0,12,57,6,1179.28442382812,320.152984619141,0,1,faces,female,1,0,faces,P,female,VS,F,55,J11,226.958984375
0,1,0,22340,2.080078125,0.32421875,6,0,6,28,8,835.40625,161.609329223633,0,1,objects,big,1,0,faces,P,female,VS,F,55,J11,226.958984375
0,1,0,22341,2.4375,0.29296875,7,0,8,38,9,936.707214355469,215.985809326172,0,1,faces,female,1,0,faces,P,female,VS,F,55,J11,226.958984375
0,1,1,22342,2.802734375,0.23046875,8,0,14,62,10,1200.84643554688,877.795288085938,0,1,faces,male,1,0,faces,P,female,VS,F,55,J11,226.958984375
0,1,0,22344,3.3125,0.369140625,9,0,10,51,12,1074.34143066406,687.866088867188,0,1,objects,small,1,0,faces,P,female,VS,F,55,J11,226.958984375
0,1,0,22345,3.70703125,0.15625,10,0,11,52,13,1049.56848144531,729.089660644531,0,1,faces,female,1,0,faces,P,female,VS,F,55,J11,226.958984375
0,1,1,22355,0.271484375,0.236328125,1,1,8,41,2,912.290100097656,533.237976074219,0,1,faces,female,0,1,faces,A,female,EX,I,56,J11,231.158203125
0,1,0,22357,0.716796875,0.552734375,2,1,6,30,4,822.998718261719,318.682556152344,0,1,faces,female,0,1,faces,A,female,EX,I,56,J11,231.158203125
0,1,0,22359,2.31640625,0.1640625,3,1,1,6,6,597.404602050781,598.719299316406,0,1,objects,small,0,1,faces,A,female,EX,I,56,J11,231.158203125
0,1,0,22360,2.50390625,0.2890625,4,1,3,15,7,646.86328125,629.733642578125,0,1,faces,male,0,1,faces,A,female,EX,I,56,J11,231.158203125
0,1,1,22361,2.845703125,0.455078125,5,0,5,27,8,738.550231933594,917.847229003906,0,1,faces,male,0,1,faces,A,female,EX,I,56,J11,231.158203125
0,1,0,22363,3.556640625,0.34765625,6,0,11,63,10,1116.005859375,927.992431640625,0,1,objects,big,0,1,faces,A,female,EX,I,56,J11,231.158203125
0,1,0,22364,3.923828125,0.201171875,7,0,9,54,11,1027.2783203125,920.408447265625,0,1,faces,female,0,1,faces,A,female,EX,I,56,J11,231.158203125
0,1,0,22376,0.533203125,0.337890625,1,1,7,40,2,948.278442382812,440.552307128906,0,1,faces,female,1,0,faces,P,female,VS,F,57,J11,235.357421875
0,1,1,22377,0.923828125,0.23046875,2,1,12,59,3,1198.71154785156,590.097473144531,0,1,faces,male,1,0,faces,P,female,VS,F,57,J11,235.357421875
0,1,0,22379,1.369140625,0.26171875,3,1,14,79,5,1341.23876953125,782.416870117188,0,1,faces,male,1,0,faces,P,female,VS,F,57,J11,235.357421875
0,1,1,22380,1.693359375,0.1796875,4,1,6,35,6,816.236572265625,864.891784667969,0,1,faces,female,1,0,faces,P,female,VS,F,57,J11,235.357421875
0,0,0,22383,2.287109375,0.28515625,5,0,3,17,9,661.570861816406,813.763549804688,1,0,NaN,NaN,1,0,faces,P,female,VS,F,57,J11,235.357421875
0,0,0,22384,2.62890625,0.23046875,6,0,11,54,10,1044.61877441406,915.813537597656,0,1,faces,male,1,0,faces,P,female,VS,F,57,J11,235.357421875
0,0,0,22385,2.890625,0.2890625,7,0,8,43,11,935.479125976562,734.161804199219,0,1,objects,small,1,0,faces,P,female,VS,F,57,J11,235.357421875
0,1,1,22399,0.236328125,0.29296875,1,1,9,41,1,936.552917480469,508.796508789062,0,1,faces,male,0,1,faces,A,female,EX,F,58,J11,239.556640625
0,1,0,22402,1.19140625,0.10546875,2,1,13,63,4,1157.84326171875,907.643981933594,0,1,faces,female,0,1,faces,A,female,EX,F,58,J11,239.556640625
0,1,0,22403,1.3203125,0.24609375,3,1,14,71,5,1259.37280273438,836.263366699219,0,1,faces,male,0,1,faces,A,female,EX,F,58,J11,239.556640625
1,1,0,22405,1.767578125,0.220703125,4,1,15,76,7,1364.42224121094,418.869720458984,0,1,faces,female,0,1,faces,A,female,EX,F,58,J11,239.556640625
0,1,0,22406,2.0234375,0.39453125,5,0,11,57,8,1138.50573730469,297.468231201172,0,1,faces,female,0,1,faces,A,female,EX,F,58,J11,239.556640625
0,1,0,22407,2.466796875,0.251953125,6,0,3,19,9,755.145446777344,114.018844604492,0,1,objects,big,0,1,faces,A,female,EX,F,58,J11,239.556640625
2,1,1,22408,2.85546875,0.16015625,7,0,15,76,10,1316.05407714844,396.542663574219,0,1,faces,female,0,1,faces,A,female,EX,F,58,J11,239.556640625
0,1,0,22411,3.76953125,0.16015625,8,0,7,34,13,834.319763183594,729.933227539062,0,1,faces,female,0,1,faces,A,female,EX,F,58,J11,239.556640625
0,1,0,22412,3.970703125,0.169921875,9,0,5,23,14,720.672790527344,563.474670410156,0,1,faces,male,0,1,faces,A,female,EX,F,58,J11,239.556640625
0,1,0,22424,0.2265625,0.302734375,1,1,6,32,1,898.522094726562,553.829406738281,0,1,faces,female,1,1,objects,P,small,VS,O,59,J11,243.755859375
1,0,0,22425,0.576171875,1.384765625,2,1,10,50,2,1060.10705566406,545.727844238281,1,0,NaN,NaN,1,1,objects,P,small,VS,O,59,J11,243.755859375
0,0,0,22427,2.21484375,0.203125,3,1,2,11,4,645.085388183594,220.903823852539,0,1,faces,female,1,1,objects,P,small,VS,O,59,J11,243.755859375
0,0,0,22428,2.48046875,0.169921875,4,1,11,51,5,1058.99206542969,591.895202636719,0,1,faces,male,1,1,objects,P,small,VS,O,59,J11,243.755859375
2,0,0,22429,2.662109375,0.298828125,5,0,10,50,6,1049.93566894531,558.966979980469,1,0,NaN,NaN,1,1,objects,P,small,VS,O,59,J11,243.755859375
0,0,0,22431,3.212890625,0.45703125,6,0,12,63,8,1138.2978515625,928.540222167969,0,1,objects,small,1,1,objects,P,small,VS,O,59,J11,243.755859375
3,0,1,22432,3.71484375,0.20703125,7,0,10,50,9,1062.14575195312,572.373718261719,1,0,NaN,NaN,1,1,objects,P,small,VS,O,59,J11,243.755859375
0,1,0,22448,0.322265625,0.171875,1,1,5,22,2,718.555725097656,478.765747070312,0,1,faces,male,1,1,objects,P,small,VS,O,60,J11,247.955078125
0,1,0,22449,0.556640625,0.232421875,2,1,13,66,3,1237.79418945312,314.135803222656,0,1,objects,small,1,1,objects,P,small,VS,O,60,J11,247.955078125
0,1,0,22450,0.859375,0.267578125,3,1,12,63,4,1115.66015625,911.515991210938,0,1,faces,female,1,1,objects,P,small,VS,O,60,J11,247.955078125
0,1,0,22452,1.341796875,0.23046875,4,1,7,26,6,722.158630371094,825.550720214844,0,1,objects,big,1,1,objects,P,small,VS,O,60,J11,247.955078125
0,0,1,22454,1.908203125,0.841796875,5,0,15,78,8,1368.45812988281,643.123413085938,1,0,NaN,NaN,1,1,objects,P,small,VS,O,60,J11,247.955078125
0,1,0,22464,0.552734375,0.25,1,1,13,67,3,1305.63598632812,488.721343994141,0,1,faces,male,1,1,objects,P,big,VS,O,61,J11,252.154296875
0,1,0,22465,0.853515625,0.22265625,2,1,12,65,4,1237.19934082031,263.9091796875,0,1,faces,female,1,1,objects,P,big,VS,O,61,J11,252.154296875
0,1,0,22467,1.392578125,0.1484375,3,1,8,44,6,942.064636230469,850.088134765625,0,1,objects,small,1,1,objects,P,big,VS,O,61,J11,252.154296875
0,0,1,22468,1.58984375,0.482421875,4,1,11,63,7,1118.12915039062,937.785827636719,1,0,NaN,NaN,1,1,objects,P,big,VS,O,61,J11,252.154296875
0,0,0,22472,3.490234375,0.26171875,5,0,2,13,11,630.82275390625,429.632720947266,0,1,objects,small,1,1,objects,P,big,VS,O,61,J11,252.154296875
0,1,0,22478,0.25,0.291015625,1,1,3,22,1,799.453796386719,459.000640869141,0,1,faces,male,1,1,faces,P,female,VS,F,62,J11,256.353515625
0,1,0,22479,0.607421875,0.248046875,2,1,11,71,2,1272.91479492188,796.6279296875,0,1,objects,small,1,1,faces,P,female,VS,F,62,J11,256.353515625
0,0,0,22480,0.927734375,0.2734375,3,1,2,10,3,625.566711425781,126.33618927002,1,0,NaN,NaN,1,1,faces,P,female,VS,F,62,J11,256.353515625
0,0,0,22482,2.59765625,0.203125,4,1,10,64,5,1286.00708007812,182.633804321289,0,1,objects,small,1,1,faces,P,female,VS,F,62,J11,256.353515625
0,0,0,22483,2.828125,0.55859375,5,0,12,73,6,1318.58239746094,140.497329711914,0,1,faces,female,1,1,faces,P,female,VS,F,62,J11,256.353515625
0,0,0,22486,3.93359375,0.1484375,6,0,8,45,9,961.655639648438,969.236633300781,0,1,faces,male,1,1,faces,P,female,VS,F,62,J11,256.353515625
1,1,0,22494,0.3515625,0.31640625,1,1,9,42,1,927.203430175781,630.961853027344,0,1,faces,female,0,0,faces,P,male,VS,I,63,J11,260.552734375
0,1,0,22497,1.16796875,0.140625,2,1,13,52,4,1034.88952636719,762.387084960938,0,1,faces,male,0,0,faces,P,male,VS,I,63,J11,260.552734375
0,1,1,22498,1.365234375,0.119140625,3,1,4,27,5,763.276550292969,983.765747070312,0,1,faces,male,0,0,faces,P,male,VS,I,63,J11,260.552734375
0,1,0,22500,1.765625,0.185546875,4,1,8,36,7,855.056762695312,930.016357421875,0,1,faces,female,0,0,faces,P,male,VS,I,63,J11,260.552734375
0,1,0,22501,1.984375,0.232421875,5,0,10,44,8,932.909790039062,844.512939453125,0,1,faces,female,0,0,faces,P,male,VS,I,63,J11,260.552734375
2,1,0,22503,2.451171875,0.134765625,6,0,9,42,10,945.641296386719,654.789794921875,0,1,faces,female,0,0,faces,P,male,VS,I,63,J11,260.552734375
0,1,1,22504,2.623046875,0.212890625,7,0,3,25,11,780.955932617188,744.695373535156,0,1,faces,male,0,0,faces,P,male,VS,I,63,J11,260.552734375
0,1,0,22506,3.08984375,0.1953125,8,0,5,29,13,879.889831542969,218.566940307617,0,1,faces,female,0,0,faces,P,male,VS,I,63,J11,260.552734375
0,1,0,22507,3.314453125,0.18359375,9,0,2,20,14,802.203125,229.064300537109,0,1,objects,small,0,0,faces,P,male,VS,I,63,J11,260.552734375
0,1,0,22508,3.55078125,0.271484375,10,0,12,47,15,1028.39538574219,243.544296264648,0,1,faces,female,0,0,faces,P,male,VS,I,63,J11,260.552734375
0,1,0,22509,3.876953125,0.203125,11,0,15,67,16,1269.55993652344,476.1259765625,0,1,objects,big,0,0,faces,P,male,VS,I,63,J11,260.552734375
0,1,0,22519,0.46484375,0.2578125,1,1,5,25,2,762.379089355469,777.125,0,1,faces,female,1,0,faces,P,female,VS,F,64,J11,264.751953125
0,1,0,22520,0.755859375,0.193359375,2,1,3,17,3,683.876586914062,839.235168457031,0,1,faces,male,1,0,faces,P,female,VS,F,64,J11,264.751953125
0,1,0,22521,1.00390625,0.20703125,3,1,10,44,4,962.514221191406,837.754150390625,0,1,faces,female,1,0,faces,P,female,VS,F,64,J11,264.751953125
0,1,0,22522,1.23046875,0.173828125,4,1,12,52,5,1063.31713867188,748.188293457031,0,1,faces,female,1,0,faces,P,female,VS,F,64,J11,264.751953125
0,1,1,22523,1.455078125,0.12890625,5,0,11,45,6,931.607788085938,954.934448242188,0,1,faces,female,1,0,faces,P,female,VS,F,64,J11,264.751953125
0,1,0,22526,2.001953125,0.197265625,6,0,9,42,9,958.130432128906,640.049072265625,1,0,NaN,NaN,1,0,faces,P,female,VS,F,64,J11,264.751953125
0,1,0,22527,2.255859375,0.20703125,7,0,14,68,10,1269.67309570312,559.264587402344,0,1,faces,male,1,0,faces,P,female,VS,F,64,J11,264.751953125
0,1,1,22528,2.517578125,0.158203125,8,0,13,66,11,1291.43566894531,332.892425537109,0,1,faces,male,1,0,faces,P,female,VS,F,64,J11,264.751953125
1,1,1,22530,2.9453125,0.216796875,9,0,7,29,13,819.359191894531,282.321960449219,0,1,faces,male,1,0,faces,P,female,VS,F,64,J11,264.751953125
0,1,0,22532,3.3671875,0.25,10,0,4,21,15,739.710998535156,336.616424560547,0,1,faces,male,1,0,faces,P,female,VS,F,64,J11,264.751953125
2,1,0,22533,3.63671875,0.267578125,11,0,7,29,16,838.763916015625,238.113800048828,0,1,faces,male,1,0,faces,P,female,VS,F,64,J11,264.751953125
0,1,0,22543,0.294921875,0.150390625,1,1,6,33,1,859.431213378906,664.188293457031,0,1,objects,big,0,1,faces,A,male,VS,F,65,J11,268.951171875
0,1,0,22544,0.5,0.22265625,2,1,9,49,2,1022.42681884766,432.468475341797,0,1,faces,female,0,1,faces,A,male,VS,F,65,J11,268.951171875
1,1,0,22545,0.771484375,0.279296875,3,1,5,31,3,854.190856933594,438.865600585938,0,1,faces,male,0,1,faces,A,male,VS,F,65,J11,268.951171875
0,1,0,22547,1.255859375,0.224609375,4,1,7,34,5,839.784851074219,751.772644042969,0,1,faces,male,0,1,faces,A,male,VS,F,65,J11,268.951171875
0,1,0,22548,1.541015625,0.3359375,5,0,14,71,6,1260.39965820312,830.46337890625,0,1,faces,female,0,1,faces,A,male,VS,F,65,J11,268.951171875
0,1,0,22551,2.416015625,0.240234375,6,0,10,55,9,1141.30981445312,146.213790893555,0,1,faces,female,0,1,faces,A,male,VS,F,65,J11,268.951171875
0,1,0,22552,2.720703125,0.283203125,7,0,1,1,10,528.84033203125,115.201820373535,0,1,objects,big,0,1,faces,A,male,VS,F,65,J11,268.951171875
2,1,1,22554,3.283203125,0.251953125,8,0,5,31,12,823.947875976562,438.884460449219,0,1,faces,male,0,1,faces,A,male,VS,F,65,J11,268.951171875
0,1,0,22556,3.71484375,0.20703125,9,0,3,22,14,726.084167480469,433.959533691406,0,1,faces,male,0,1,faces,A,male,VS,F,65,J11,268.951171875
0,1,0,22567,0.25,0.25,1,1,7,43,1,939.297546386719,725.693298339844,0,1,faces,female,0,1,faces,A,male,EX,F,66,J11,273.150390625
0,1,0,22568,0.5546875,0.501953125,2,1,3,8,2,554.898620605469,821.756286621094,0,1,objects,small,0,1,faces,A,male,EX,F,66,J11,273.150390625
0,1,0,22569,1.126953125,0.255859375,3,1,14,70,3,1233.11669921875,765.0634765625,0,1,faces,male,0,1,faces,A,male,EX,F,66,J11,273.150390625
0,1,0,22570,1.40234375,0.265625,4,1,13,69,4,1254.38940429688,666.842529296875,0,1,objects,big,0,1,faces,A,male,EX,F,66,J11,273.150390625
0,1,0,22572,2.146484375,0.25390625,5,0,2,3,6,535.408630371094,327.418670654297,0,1,objects,small,0,1,faces,A,male,EX,F,66,J11,273.150390625
0,1,0,22575,2.779296875,0.255859375,6,0,11,66,9,1234.52697753906,350.287109375,0,1,faces,female,0,1,faces,A,male,EX,F,66,J11,273.150390625
0,1,0,22576,3.091796875,0.2109375,7,0,6,37,10,984.4375,137.171844482422,0,1,faces,male,0,1,faces,A,male,EX,F,66,J11,273.150390625
0,1,0,22577,3.314453125,0.22265625,8,0,8,46,11,1011.99169921875,147.812652587891,0,1,faces,male,0,1,faces,A,male,EX,F,66,J11,273.150390625
0,1,0,22578,3.59765625,0.296875,9,0,1,1,12,579.76611328125,116.902359008789,0,1,faces,female,0,1,faces,A,male,EX,F,66,J11,273.150390625
0,1,0,22588,0.25390625,0.24609375,1,1,5,32,1,830.075988769531,510.519256591797,0,1,faces,male,1,1,objects,P,big,VS,O,67,J11,277.349609375
0,1,0,22589,0.57421875,0.16796875,2,1,15,77,2,1328.88842773438,559.135559082031,0,1,objects,big,1,1,objects,P,big,VS,O,67,J11,277.349609375
0,1,0,22590,0.80078125,0.240234375,3,1,12,65,3,1255.26965332031,240.498504638672,0,1,faces,female,1,1,objects,P,big,VS,O,67,J11,277.349609375
0,1,0,22591,1.09765625,0.115234375,4,1,6,37,4,952.696411132812,152.577331542969,0,1,faces,female,1,1,objects,P,big,VS,O,67,J11,277.349609375
0,1,1,22592,1.2578125,0.19921875,5,0,9,47,5,1047.93176269531,252.651458740234,1,0,NaN,NaN,1,1,objects,P,big,VS,O,67,J11,277.349609375
0,0,0,22595,3.2421875,0.23046875,6,0,13,72,8,1210.7705078125,936.395751953125,0,1,faces,male,1,1,objects,P,big,VS,O,67,J11,277.349609375
0,0,1,22596,3.52734375,0.203125,7,0,7,43,9,927.173583984375,756.073181152344,0,1,faces,male,1,1,objects,P,big,VS,O,67,J11,277.349609375
1,1,0,22609,0.373046875,0.224609375,1,1,10,51,1,1051.58911132812,634.650756835938,0,1,faces,female,0,1,faces,A,female,VS,I,68,J11,281.548828125
1,1,0,22610,0.634765625,0.2265625,2,1,9,49,2,1046.99499511719,441.919586181641,0,1,objects,big,0,1,faces,A,female,VS,I,68,J11,281.548828125
1,1,0,22611,0.916015625,0.181640625,3,1,3,12,3,690.654174804688,360.845794677734,0,1,faces,female,0,1,faces,A,female,VS,I,68,J11,281.548828125
0,1,0,22613,1.388671875,0.208984375,4,1,13,69,5,1261.43322753906,596.403442382812,0,1,objects,big,0,1,faces,A,female,VS,I,68,J11,281.548828125
0,1,1,22614,1.66015625,0.150390625,5,0,15,73,6,1342.31457519531,171.139541625977,0,1,faces,male,0,1,faces,A,female,VS,I,68,J11,281.548828125
0,1,0,22616,2.08203125,0.212890625,6,0,5,20,8,716.438720703125,232.564895629883,0,1,faces,male,0,1,faces,A,female,VS,I,68,J11,281.548828125
2,1,0,22617,2.328125,0.287109375,7,0,3,12,9,613.646301269531,326.311279296875,0,1,faces,female,0,1,faces,A,female,VS,I,68,J11,281.548828125
0,1,0,22618,2.685546875,0.21484375,8,0,7,36,10,854.035705566406,920.728820800781,0,1,objects,big,0,1,faces,A,female,VS,I,68,J11,281.548828125
0,1,0,22619,2.9453125,0.23828125,9,0,6,26,11,736.373657226562,836.70654296875,0,1,faces,female,0,1,faces,A,female,VS,I,68,J11,281.548828125
0,1,0,22620,3.244140625,0.23046875,10,0,11,63,12,1131.82824707031,929.798950195312,0,1,faces,female,0,1,faces,A,female,VS,I,68,J11,281.548828125
2,1,0,22621,3.53125,0.23828125,11,0,10,51,13,1044.21447753906,635.856018066406,0,1,faces,female,0,1,faces,A,female,VS,I,68,J11,281.548828125
2,1,0,22622,3.806640625,0.2578125,12,0,9,49,14,1041.74731445312,451.870727539062,0,1,objects,big,0,1,faces,A,female,VS,I,68,J11,281.548828125
1,1,0,22635,0.515625,0.115234375,1,1,5,23,3,766.75927734375,549.524353027344,0,1,faces,female,0,1,objects,A,small,VS,O,69,J11,285.748046875
0,1,0,22637,0.93359375,0.228515625,2,1,11,52,5,1041.0849609375,784.771850585938,0,1,faces,male,0,1,objects,A,small,VS,O,69,J11,285.748046875
2,1,0,22638,1.216796875,0.208984375,3,1,5,23,6,779.565002441406,578.310363769531,0,1,faces,female,0,1,objects,A,small,VS,O,69,J11,285.748046875
0,1,0,22639,1.48828125,0.203125,4,1,2,10,7,661.054016113281,143.049301147461,0,1,objects,big,0,1,objects,A,small,VS,O,69,J11,285.748046875
0,1,0,22642,2.23046875,0.1484375,5,0,7,40,10,950.46826171875,398.500457763672,0,1,faces,male,0,1,objects,A,small,VS,O,69,J11,285.748046875
0,1,0,22643,2.396484375,0.16015625,6,0,10,48,11,1060.28442382812,346.559387207031,0,1,objects,big,0,1,objects,A,small,VS,O,69,J11,285.748046875
0,1,0,22644,2.60546875,0.306640625,7,0,14,67,12,1251.15234375,437.740631103516,0,1,objects,small,0,1,objects,A,small,VS,O,69,J11,285.748046875
0,1,0,22647,3.384765625,0.20703125,8,0,3,17,15,667.345031738281,818.2626953125,0,1,objects,small,0,1,objects,A,small,VS,O,69,J11,285.748046875
3,1,0,22648,3.650390625,0.255859375,9,0,5,23,16,769.341918945312,490.818237304688,0,1,faces,female,0,1,objects,A,small,VS,O,69,J11,285.748046875
0,1,0,22656,0.2578125,0.435546875,1,1,6,40,1,921.311645507812,402.901245117188,0,1,faces,male,0,1,objects,A,big,EX,O,70,J11,289.947265625
0,1,0,22657,0.7265625,0.814453125,2,1,7,41,2,956.750305175781,529.461669921875,0,1,faces,female,0,1,objects,A,big,EX,O,70,J11,289.947265625
0,1,1,22658,1.6015625,0.15234375,3,1,11,63,3,1177.875,944.583312988281,0,1,faces,female,0,1,objects,A,big,EX,O,70,J11,289.947265625
0,1,0,22661,2.2734375,0.203125,4,1,2,18,6,674.6259765625,919.843322753906,0,1,objects,big,0,1,objects,A,big,EX,O,70,J11,289.947265625
0,1,1,22662,2.52734375,0.193359375,5,0,8,44,7,948.884216308594,859.676635742188,0,1,objects,small,0,1,objects,A,big,EX,O,70,J11,289.947265625
0,1,0,22664,3.005859375,0.279296875,6,0,15,79,9,1369.69323730469,761.763122558594,0,1,objects,small,0,1,objects,A,big,EX,O,70,J11,289.947265625
0,1,0,22665,3.3515625,0.296875,7,0,14,74,10,1313.80712890625,214.510299682617,0,1,faces,male,0,1,objects,A,big,EX,O,70,J11,289.947265625
0,1,0,22666,3.66796875,0.43359375,8,0,13,73,11,1321.52648925781,107.985511779785,0,1,objects,big,0,1,objects,A,big,EX,O,70,J11,289.947265625
1,1,0,22676,0.328125,0.177734375,1,1,10,40,1,1010.23016357422,452.010467529297,0,1,faces,female,0,1,faces,A,female,VS,F,71,J11,294.146484375
0,1,0,22677,0.552734375,0.2109375,2,1,8,32,2,845.591674804688,539.704040527344,0,1,faces,female,0,1,faces,A,female,VS,F,71,J11,294.146484375
2,1,0,22678,0.79296875,0.142578125,3,1,10,40,3,1006.20642089844,448.429779052734,0,1,faces,female,0,1,faces,A,female,VS,F,71,J11,294.146484375
1,1,0,22679,0.990234375,0.267578125,4,1,15,76,4,1331.14440917969,438.727386474609,0,1,faces,female,0,1,faces,A,female,VS,F,71,J11,294.146484375
0,1,0,22681,1.4609375,0.21484375,5,0,1,1,6,590.652770996094,126.912490844727,0,1,objects,small,0,1,faces,A,female,VS,F,71,J11,294.146484375
2,1,0,22683,1.892578125,0.33203125,6,0,15,76,8,1359.72302246094,455.386993408203,0,1,faces,female,0,1,faces,A,female,VS,F,71,J11,294.146484375
0,1,0,22685,2.564453125,0.16015625,7,0,5,18,10,664.092651367188,939.784790039062,0,1,faces,male,0,1,faces,A,female,VS,F,71,J11,294.146484375
0,1,1,22686,2.7734375,0.1640625,8,0,9,35,11,872.28271484375,839.759094238281,0,1,faces,female,0,1,faces,A,female,VS,F,71,J11,294.146484375
0,1,1,22688,3.25,0.203125,9,0,3,16,13,649.333557128906,705.567626953125,0,1,faces,female,0,1,faces,A,female,VS,F,71,J11,294.146484375
0,1,0,22690,3.796875,0.294921875,10,0,2,5,15,540.041931152344,543.945861816406,0,1,faces,male,0,1,faces,A,female,VS,F,71,J11,294.146484375
0,1,0,22697,0.265625,0.302734375,1,1,10,49,2,1039.78967285156,448.5234375,0,1,faces,female,0,1,objects,A,small,EX,O,72,J11,298.345703125
0,1,0,22698,0.607421875,0.341796875,2,1,8,30,3,822.849548339844,334.452880859375,0,1,objects,small,0,1,objects,A,small,EX,O,72,J11,298.345703125
0,1,0,22700,1.39453125,0.154296875,3,1,4,18,5,710.215759277344,930.43896484375,0,1,faces,male,0,1,objects,A,small,EX,O,72,J11,298.345703125
0,1,0,22701,1.560546875,0.31640625,4,1,6,27,6,743.928527832031,926.585815429688,0,1,faces,female,0,1,objects,A,small,EX,O,72,J11,298.345703125
0,1,0,22702,1.908203125,0.349609375,5,0,5,26,7,759.654968261719,820.087036132812,0,1,faces,female,0,1,objects,A,small,EX,O,72,J11,298.345703125
0,1,0,22703,2.283203125,0.240234375,6,0,3,16,8,641.61474609375,733.866149902344,0,1,faces,male,0,1,objects,A,small,EX,O,72,J11,298.345703125
0,1,0,22705,2.87109375,0.15234375,7,0,14,72,10,1231.90783691406,937.026245117188,0,1,faces,female,0,1,objects,A,small,EX,O,72,J11,298.345703125
0,1,0,22706,3.076171875,0.216796875,8,0,13,69,11,1264.26904296875,685.72509765625,0,1,faces,male,0,1,objects,A,small,EX,O,72,J11,298.345703125
0,1,0,22708,3.625,0.275390625,9,0,9,37,13,913.178771972656,112.737945556641,0,1,objects,small,0,1,objects,A,small,EX,O,72,J11,298.345703125
0,1,0,22709,3.955078125,0.13671875,10,0,1,1,14,554.333984375,96.7936935424805,0,1,objects,big,0,1,objects,A,small,EX,O,72,J11,298.345703125
0,1,0,22889,0.26171875,0.26171875,1,1,8,42,1,968.530822753906,595.150634765625,0,1,faces,female,0,1,objects,A,big,VS,O,73,J11,302.544921875
0,1,0,22890,0.580078125,0.271484375,2,1,4,13,2,662.148254394531,468.422393798828,0,1,faces,male,0,1,objects,A,big,VS,O,73,J11,302.544921875
0,1,0,22891,0.90234375,0.220703125,3,1,5,15,3,681.839721679688,652.289428710938,0,1,objects,big,0,1,objects,A,big,VS,O,73,J11,302.544921875
1,1,0,22893,1.451171875,0.2265625,4,1,11,51,5,1027.90026855469,639.16943359375,0,1,faces,female,0,1,objects,A,big,VS,O,73,J11,302.544921875
0,1,0,22894,1.7421875,0.224609375,5,0,3,11,6,639.912719726562,239.460006713867,0,1,faces,female,0,1,objects,A,big,VS,O,73,J11,302.544921875
0,1,0,22895,1.99609375,0.302734375,6,0,1,2,7,532.890747070312,208.498840332031,0,1,objects,big,0,1,objects,A,big,VS,O,73,J11,302.544921875
0,1,0,22896,2.32421875,0.21484375,7,0,6,19,8,756.151550292969,142.343231201172,0,1,objects,small,0,1,objects,A,big,VS,O,73,J11,302.544921875
0,1,0,22897,2.61328125,0.19140625,8,0,15,74,9,1321.10205078125,289.616729736328,0,1,faces,male,0,1,objects,A,big,VS,O,73,J11,302.544921875
0,1,0,22898,2.8515625,0.23046875,9,0,14,67,10,1237.01440429688,437.396423339844,0,1,faces,female,0,1,objects,A,big,VS,O,73,J11,302.544921875
2,1,0,22899,3.8046875,0.52734375,10,0,11,51,11,1062.15844726562,629.581481933594,0,1,faces,female,0,1,objects,A,big,VS,O,73,J11,302.544921875
1,1,0,22914,0.45703125,0.1953125,1,1,6,31,2,856.017395019531,447.776062011719,0,1,faces,male,0,1,faces,A,female,EX,I,74,J11,306.744140625
0,1,0,22915,0.705078125,0.310546875,2,1,9,49,3,1095.85388183594,445.021575927734,0,1,objects,small,0,1,faces,A,female,EX,I,74,J11,306.744140625
1,1,0,22916,1.044921875,0.3046875,3,1,13,58,4,1164.94519042969,453.105865478516,0,1,objects,big,0,1,faces,A,female,EX,I,74,J11,306.744140625
0,1,0,22917,1.404296875,0.224609375,4,1,8,42,5,961.87158203125,690.350402832031,0,1,faces,male,0,1,faces,A,female,EX,I,74,J11,306.744140625
0,1,0,22918,1.6796875,0.21875,5,0,10,53,6,1068.10192871094,845.902221679688,0,1,objects,small,0,1,faces,A,female,EX,I,74,J11,306.744140625
0,1,0,22919,1.955078125,0.1328125,6,0,15,80,7,1370.68811035156,834.404968261719,0,1,faces,female,0,1,faces,A,female,EX,I,74,J11,306.744140625
0,1,0,22920,2.14453125,0.248046875,7,0,14,68,8,1258.00158691406,538.475524902344,0,1,objects,small,0,1,faces,A,female,EX,I,74,J11,306.744140625
2,1,0,22922,2.720703125,0.13671875,8,0,6,31,10,835.722045898438,430.10888671875,0,1,faces,male,0,1,faces,A,female,EX,I,74,J11,306.744140625
0,1,0,22924,3.216796875,0.193359375,9,0,11,56,12,1160.69860839844,288.082611083984,0,1,faces,female,0,1,faces,A,female,EX,I,74,J11,306.744140625
2,1,1,22925,3.443359375,0.166015625,10,0,13,58,13,1149.24243164062,403.061676025391,0,1,objects,big,0,1,faces,A,female,EX,I,74,J11,306.744140625
0,1,0,22935,0.5078125,0.28125,1,1,8,60,2,1174.14916992188,661.940246582031,0,1,objects,big,0,1,faces,A,male,EX,F,75,J11,310.943359375
0,1,1,22936,0.837890625,0.328125,2,1,11,71,3,1277.390625,798.275024414062,0,1,faces,male,0,1,faces,A,male,EX,F,75,J11,310.943359375
0,1,0,22938,1.533203125,0.392578125,3,1,10,70,5,1267.08032226562,736.841735839844,0,1,faces,female,0,1,faces,A,male,EX,F,75,J11,310.943359375
0,1,0,22939,1.98828125,0.287109375,4,1,13,75,6,1348.99523925781,305.754028320312,0,1,faces,male,0,1,faces,A,male,EX,F,75,J11,310.943359375
0,1,0,22940,2.306640625,0.146484375,5,0,12,74,7,1338.2529296875,228.266586303711,0,1,faces,male,0,1,faces,A,male,EX,F,75,J11,310.943359375
0,1,0,22942,2.7578125,0.3515625,6,0,1,13,9,635.437927246094,410.255950927734,0,1,faces,female,0,1,faces,A,male,EX,F,75,J11,310.943359375
0,1,0,22943,3.166015625,0.2109375,7,0,7,48,10,1022.96411132812,328.147857666016,0,1,objects,big,0,1,faces,A,male,EX,F,75,J11,310.943359375
0,1,0,22944,3.412109375,0.16015625,8,0,6,46,11,1011.38537597656,188.496765136719,0,1,objects,small,0,1,faces,A,male,EX,F,75,J11,310.943359375
0,1,1,22952,0.265625,0.359375,1,1,8,39,1,974.805053710938,375.700439453125,0,1,faces,female,1,1,faces,P,female,VS,F,76,J11,315.142578125
0,1,0,22954,0.916015625,0.2265625,2,1,7,38,3,958.618957519531,243.657485961914,0,1,objects,big,1,1,faces,P,female,VS,F,76,J11,315.142578125
0,1,0,22955,1.173828125,0.2578125,3,1,6,37,4,927.752502441406,136.116455078125,0,1,faces,male,1,1,faces,P,female,VS,F,76,J11,315.142578125
0,0,0,22958,1.8984375,2.373046875,4,1,14,72,7,1249.81127929688,930.742797851562,1,0,NaN,NaN,1,1,faces,P,female,VS,F,76,J11,315.142578125
1,1,0,22969,0.2734375,0.2890625,1,1,14,70,1,1262.86328125,733.1025390625,0,1,faces,female,0,0,faces,P,male,VS,I,77,J11,319.341796875
0,1,0,22971,0.958984375,0.263671875,2,1,3,17,3,677.26171875,827.093200683594,0,1,objects,small,0,0,faces,P,male,VS,I,77,J11,319.341796875
0,1,0,22972,1.251953125,0.142578125,3,1,4,18,4,679.306335449219,919.624877929688,0,1,faces,male,0,0,faces,P,male,VS,I,77,J11,319.341796875
0,1,0,22973,1.455078125,0.154296875,4,1,8,32,5,817.740783691406,535.667907714844,0,1,faces,female,0,0,faces,P,male,VS,I,77,J11,319.341796875
0,1,0,22974,1.6640625,0.41796875,5,0,1,12,6,708.062561035156,305.540802001953,0,1,faces,female,0,0,faces,P,male,VS,I,77,J11,319.341796875
0,1,0,22975,2.11328125,0.138671875,6,0,5,20,7,736.032165527344,220.601776123047,0,1,faces,male,0,0,faces,P,male,VS,I,77,J11,319.341796875
0,1,0,22976,2.310546875,0.26953125,7,0,12,56,8,1175.6328125,222.053924560547,0,1,objects,big,0,0,faces,P,male,VS,I,77,J11,319.341796875
0,1,1,22978,2.705078125,0.271484375,8,0,11,55,10,1135.56103515625,132.875686645508,0,1,faces,female,0,0,faces,P,male,VS,I,77,J11,319.341796875
2,1,0,22981,3.46484375,0.251953125,9,0,14,70,13,1252.74047851562,750.248046875,0,1,faces,female,0,0,faces,P,male,VS,I,77,J11,319.341796875
0,1,0,22992,0.234375,0.41015625,1,1,4,20,1,714.366516113281,233.072326660156,0,1,faces,female,0,1,faces,P,male,VS,F,78,J11,323.541015625
0,1,0,22994,0.9609375,0.40234375,2,1,1,13,3,645.161804199219,428.294799804688,0,1,faces,male,0,1,faces,P,male,VS,F,78,J11,323.541015625
1,1,0,22996,1.70703125,0.298828125,3,1,11,60,5,1124.75964355469,657.116149902344,0,1,faces,male,0,1,faces,P,male,VS,F,78,J11,323.541015625
0,1,0,22997,2.044921875,0.203125,4,1,12,61,6,1193.1064453125,723.030944824219,0,1,faces,male,0,1,faces,P,male,VS,F,78,J11,323.541015625
2,1,0,22998,2.267578125,0.158203125,5,0,11,60,7,1207.60522460938,644.793762207031,0,1,faces,male,0,1,faces,P,male,VS,F,78,J11,323.541015625
1,0,1,23013,0.427734375,0.248046875,1,1,1,2,1,582.648742675781,234.390686035156,1,0,NaN,NaN,1,1,faces,P,male,VS,F,79,J11,327.740234375
1,0,0,23015,0.84765625,0.126953125,2,1,5,11,3,640.732238769531,202.381362915039,0,1,faces,male,1,1,faces,P,male,VS,F,79,J11,327.740234375
2,0,0,23016,1.005859375,0.98046875,3,1,1,2,4,541.061828613281,207.570678710938,1,0,NaN,NaN,1,1,faces,P,male,VS,F,79,J11,327.740234375
2,0,0,23017,2.015625,0.388671875,4,1,5,11,5,651.349182128906,202.573028564453,0,1,faces,male,1,1,faces,P,male,VS,F,79,J11,327.740234375
3,0,0,23018,2.4375,1.3671875,5,0,1,2,6,528.645446777344,205.079513549805,1,0,NaN,NaN,1,1,faces,P,male,VS,F,79,J11,327.740234375
0,0,0,23019,3.83984375,0.1875,6,0,2,3,7,547.742736816406,352.555297851562,0,1,faces,male,1,1,faces,P,male,VS,F,79,J11,327.740234375
1,1,1,23028,0.259765625,0.2421875,1,1,6,23,1,765.0703125,578.916015625,0,1,faces,female,0,1,faces,A,female,VS,I,80,J11,331.939453125
0,1,0,23030,0.689453125,0.232421875,2,1,2,10,3,661.428771972656,104.574722290039,0,1,objects,big,0,1,faces,A,female,VS,I,80,J11,331.939453125
0,1,0,23031,0.947265625,0.171875,3,1,4,19,4,720.548034667969,91.1804428100586,0,1,faces,female,0,1,faces,A,female,VS,I,80,J11,331.939453125
0,1,1,23032,1.1796875,0.205078125,4,1,13,53,5,1050.94445800781,871.041748046875,0,1,faces,male,0,1,faces,A,female,VS,I,80,J11,331.939453125
0,1,0,23034,1.578125,0.21484375,5,0,12,52,7,1075.8369140625,715.163024902344,0,1,faces,female,0,1,faces,A,female,VS,I,80,J11,331.939453125
0,1,1,23035,1.84765625,0.21875,6,0,15,81,8,1364.33117675781,959.144470214844,0,1,faces,female,0,1,faces,A,female,VS,I,80,J11,331.939453125
0,1,0,23037,2.31640625,0.2578125,7,0,14,76,10,1389.99890136719,445.002166748047,0,1,faces,male,0,1,faces,A,female,VS,I,80,J11,331.939453125
0,1,0,23039,2.8203125,0.220703125,8,0,3,18,12,675.420715332031,908.866516113281,0,1,faces,male,0,1,faces,A,female,VS,I,80,J11,331.939453125
0,1,0,23040,3.09765625,0.212890625,9,0,9,42,13,924.271545410156,596.129028320312,0,1,objects,small,0,1,faces,A,female,VS,I,80,J11,331.939453125
2,1,1,23041,3.34375,0.251953125,10,0,6,23,14,767.229309082031,517.299926757812,0,1,faces,female,0,1,faces,A,female,VS,I,80,J11,331.939453125
0,1,1,23048,0.3984375,0.158203125,1,1,15,62,2,1183.27758789062,858.105590820312,0,1,faces,male,0,1,faces,A,female,VS,F,81,J11,336.138671875
0,1,0,23050,0.75390625,0.220703125,2,1,9,36,4,868.671569824219,921.563415527344,0,1,faces,female,0,1,faces,A,female,VS,F,81,J11,336.138671875
0,1,0,23051,1.025390625,0.25390625,3,1,8,34,5,822.401916503906,691.661987304688,0,1,faces,male,0,1,faces,A,female,VS,F,81,J11,336.138671875
0,1,0,23053,1.64453125,0.28125,4,1,4,14,7,642.373657226562,516.345947265625,0,1,faces,male,0,1,faces,A,female,VS,F,81,J11,336.138671875
1,1,0,23054,1.984375,0.26171875,5,0,11,40,8,984.921508789062,394.242858886719,0,1,faces,female,0,1,faces,A,female,VS,F,81,J11,336.138671875
0,1,0,23055,2.279296875,0.365234375,6,0,6,30,9,853.607116699219,328.562255859375,0,1,faces,female,0,1,faces,A,female,VS,F,81,J11,336.138671875
2,1,0,23056,2.689453125,0.30078125,7,0,11,40,10,976.907653808594,443.739715576172,0,1,faces,female,0,1,faces,A,female,VS,F,81,J11,336.138671875
0,1,0,23057,3.05078125,0.26171875,8,0,10,37,11,950.709045410156,154.16423034668,0,1,objects,big,0,1,faces,A,female,VS,F,81,J11,336.138671875
0,1,0,23058,3.3671875,0.22265625,9,0,2,11,12,627.475036621094,210.085052490234,0,1,objects,big,0,1,faces,A,female,VS,F,81,J11,336.138671875
0,1,0,23060,3.822265625,0.3046875,10,0,1,8,14,582.284912109375,822.363159179688,0,1,faces,female,0,1,faces,A,female,VS,F,81,J11,336.138671875
0,1,0,23074,0.326171875,0.1328125,1,1,6,40,2,949.74853515625,442.489501953125,0,1,faces,male,0,1,faces,A,male,VS,F,82,J11,340.337890625
0,1,0,23075,0.501953125,0.205078125,2,1,8,48,3,1046.2841796875,347.273162841797,0,1,faces,female,0,1,faces,A,male,VS,F,82,J11,340.337890625
0,1,0,23076,0.759765625,0.240234375,3,1,7,46,4,1013.09411621094,126.342185974121,0,1,faces,male,0,1,faces,A,male,VS,F,82,J11,340.337890625
0,1,0,23079,1.603515625,0.19921875,4,1,4,24,7,762.761901855469,612.934936523438,0,1,faces,female,0,1,faces,A,male,VS,F,82,J11,340.337890625
0,1,1,23080,1.857421875,0.203125,5,0,12,62,8,1141.69421386719,869.371459960938,0,1,faces,female,0,1,faces,A,male,VS,F,82,J11,340.337890625
0,1,0,23082,2.31640625,0.30078125,6,0,10,60,10,1195.01062011719,646.839965820312,0,1,faces,female,0,1,faces,A,male,VS,F,82,J11,340.337890625
0,1,0,23083,2.666015625,0.294921875,7,0,15,79,11,1361.517578125,755.662048339844,0,1,faces,female,0,1,faces,A,male,VS,F,82,J11,340.337890625
0,1,0,23084,2.994140625,0.12890625,8,0,14,71,12,1213.25805664062,817.289794921875,0,1,objects,big,0,1,faces,A,male,VS,F,82,J11,340.337890625
0,1,0,23085,3.15234375,0.458984375,9,0,11,61,13,1157.08374023438,726.775146484375,0,1,faces,male,0,1,faces,A,male,VS,F,82,J11,340.337890625
0,1,0,23086,3.673828125,0.36328125,10,0,3,9,14,591.84814453125,922.333068847656,0,1,faces,male,0,1,faces,A,male,VS,F,82,J11,340.337890625
0,0,1,23099,0.267578125,0.240234375,1,1,4,32,2,906.155822753906,550.593505859375,1,0,NaN,NaN,1,1,objects,P,small,VS,O,83,J11,344.537109375
1,1,0,23113,0.24609375,0.21875,1,1,7,36,1,840.057312011719,947.007995605469,0,1,faces,male,0,1,faces,A,male,VS,I,84,J11,348.736328125
0,1,0,23114,0.494140625,0.189453125,2,1,5,27,2,774.663269042969,938.536010742188,0,1,faces,male,0,1,faces,A,male,VS,I,84,J11,348.736328125
2,1,0,23115,0.712890625,0.2109375,3,1,7,36,3,870.192138671875,923.984252929688,0,1,faces,male,0,1,faces,A,male,VS,I,84,J11,348.736328125
0,1,0,23116,0.98046875,0.16796875,4,1,11,63,4,1191.61352539062,952.59130859375,0,1,faces,female,0,1,faces,A,male,VS,I,84,J11,348.736328125
0,1,0,23118,1.375,0.16015625,5,0,14,68,6,1301.61303710938,552.308410644531,0,1,faces,female,0,1,faces,A,male,VS,I,84,J11,348.736328125
0,1,0,23120,1.7578125,0.146484375,6,0,15,76,8,1404.982421875,467.043273925781,0,1,faces,female,0,1,faces,A,male,VS,I,84,J11,348.736328125
0,1,0,23121,1.95703125,0.22265625,7,0,13,65,9,1302.54357910156,238.26106262207,0,1,faces,female,0,1,faces,A,male,VS,I,84,J11,348.736328125
0,1,1,23123,2.5859375,0.154296875,8,0,4,20,11,735.667724609375,242.205551147461,0,1,faces,male,0,1,faces,A,male,VS,I,84,J11,348.736328125
0,1,0,23125,2.98828125,0.224609375,9,0,3,14,13,629.866088867188,564.694885253906,0,1,objects,small,0,1,faces,A,male,VS,I,84,J11,348.736328125
0,1,0,23126,3.251953125,0.529296875,10,0,1,4,14,570.678771972656,439.260833740234,0,1,faces,male,0,1,faces,A,male,VS,I,84,J11,348.736328125
0,1,0,23139,0.310546875,0.166015625,1,1,12,52,1,1075.38708496094,736.54248046875,0,1,faces,male,0,1,faces,P,male,VS,I,85,J11,352.935546875
0,1,0,23140,0.533203125,0.28125,2,1,4,18,2,706.461547851562,914.071044921875,0,1,objects,small,0,1,faces,P,male,VS,I,85,J11,352.935546875
0,1,0,23142,1.068359375,0.267578125,3,1,2,5,4,544.664794921875,542.258239746094,0,1,faces,male,0,1,faces,P,male,VS,I,85,J11,352.935546875
0,1,0,23143,1.39453125,0.244140625,4,1,9,29,5,888.284484863281,248.929290771484,0,1,faces,female,0,1,faces,P,male,VS,I,85,J11,352.935546875
0,1,0,23144,1.677734375,0.177734375,5,0,8,28,6,824.786071777344,123.134796142578,0,1,faces,female,0,1,faces,P,male,VS,I,85,J11,352.935546875
0,1,0,23145,1.91015625,0.25390625,6,0,11,48,7,1104.30078125,321.646362304688,0,1,faces,female,0,1,faces,P,male,VS,I,85,J11,352.935546875
0,1,1,23158,0.224609375,0.1640625,1,1,8,38,1,976.777648925781,224.536804199219,0,1,objects,big,0,1,faces,A,male,EX,I,86,J11,357.134765625
0,1,0,23160,0.98046875,0.578125,2,1,5,30,3,858.744140625,324.632690429688,0,1,faces,male,0,1,faces,A,male,EX,I,86,J11,357.134765625
1,1,0,23161,1.611328125,0.33984375,3,1,10,50,4,1021.61340332031,536.359802246094,0,1,objects,small,0,1,faces,A,male,EX,I,86,J11,357.134765625
0,1,0,23162,1.98046875,0.33203125,4,1,9,41,5,968.7060546875,537.253601074219,0,1,faces,male,0,1,faces,A,male,EX,I,86,J11,357.134765625
2,1,0,23163,2.341796875,0.625,5,0,10,50,6,1076.84301757812,535.17919921875,0,1,objects,small,0,1,faces,A,male,EX,I,86,J11,357.134765625
0,1,1,23164,3.025390625,0.162109375,6,0,6,34,7,851.505676269531,782.093872070312,0,1,faces,female,0,1,faces,A,male,EX,I,86,J11,357.134765625
0,1,0,23166,3.75390625,0.169921875,7,0,7,35,9,873.136779785156,847.630676269531,0,1,faces,male,0,1,faces,A,male,EX,I,86,J11,357.134765625
0,1,0,23182,0.28125,0.22265625,1,1,5,33,1,867.485717773438,634.467651367188,0,1,faces,female,1,1,objects,P,small,VS,O,87,J11,361.333984375
0,1,0,23183,0.5546875,0.130859375,2,1,4,26,2,764.442077636719,884.890563964844,0,1,faces,female,1,1,objects,P,small,VS,O,87,J11,361.333984375
1,1,1,23184,0.748046875,0.21875,3,1,12,68,3,1254.89562988281,572.208923339844,0,1,objects,small,1,1,objects,P,small,VS,O,87,J11,361.333984375
0,1,0,23186,1.208984375,0.21484375,4,1,11,66,5,1225.06591796875,330.086456298828,0,1,faces,female,1,1,objects,P,small,VS,O,87,J11,361.333984375
0,1,0,23188,1.623046875,0.26953125,5,0,7,37,7,943.541931152344,141.787872314453,0,1,faces,male,1,1,objects,P,small,VS,O,87,J11,361.333984375
0,1,0,23189,1.939453125,0.25390625,6,0,8,39,8,973.464172363281,339.455108642578,0,1,objects,big,1,1,objects,P,small,VS,O,87,J11,361.333984375
2,1,1,23190,2.251953125,0.23046875,7,0,12,68,9,1302.69067382812,561.782104492188,0,1,objects,small,1,1,objects,P,small,VS,O,87,J11,361.333984375
0,1,0,23192,2.818359375,0.255859375,8,0,15,80,11,1387.7275390625,870.500671386719,0,1,faces,male,1,1,objects,P,small,VS,O,87,J11,361.333984375
1,0,0,23194,3.39453125,0.25390625,9,0,13,75,13,1375.06970214844,314.704803466797,1,0,NaN,NaN,1,1,objects,P,small,VS,O,87,J11,361.333984375
2,0,0,23196,3.830078125,0.11328125,10,0,13,75,15,1405.99865722656,327.814910888672,1,0,NaN,NaN,1,1,objects,P,small,VS,O,87,J11,361.333984375
0,1,0,23207,0.294921875,0.232421875,1,1,9,32,2,890.417419433594,491.11474609375,0,1,faces,male,1,1,objects,P,small,VS,O,88,J11,365.533203125
1,0,0,23208,0.546875,0.201171875,2,1,5,21,3,772.745422363281,361.038116455078,1,0,NaN,NaN,1,1,objects,P,small,VS,O,88,J11,365.533203125
0,0,0,23209,0.810546875,0.12109375,3,1,12,65,4,1255.44177246094,253.298446655273,0,1,objects,big,1,1,objects,P,small,VS,O,88,J11,365.533203125
2,0,1,23210,0.994140625,0.1875,4,1,5,21,5,778.641906738281,352.875,1,0,NaN,NaN,1,1,objects,P,small,VS,O,88,J11,365.533203125
0,0,0,23214,2.2734375,0.59765625,5,0,3,11,9,626.05908203125,240.132705688477,0,1,objects,small,1,1,objects,P,small,VS,O,88,J11,365.533203125
0,0,1,23215,2.921875,0.16796875,6,0,2,4,10,530.701477050781,444.007232666016,0,1,faces,female,1,1,objects,P,small,VS,O,88,J11,365.533203125
3,0,0,23217,3.2890625,0.296875,7,0,5,21,12,763.56689453125,358.299987792969,1,0,NaN,NaN,1,1,objects,P,small,VS,O,88,J11,365.533203125
